gyro_x_noised,gyro_y_noised,gyro_z_noised,grav_x_noised,grav_y_noised,grav_z_noised,gyro_x,gyro_y,gyro_z,grav_x,grav_y,grav_z
0.05763980911686592,-0.15541337635228533,10.61254431545284,0.022911581289325578,-0.017544293721604202,0.7372732668209068,0.0,1.2246467991473532e-16,10.517106781186548,0.0,1.2246467991473532e-16,0.7071067811865475
0.21624874485011064,0.012106798704030156,10.432749891031033,0.012486437493150274,-0.11119460778215035,0.7437058433574,0.06279051952931339,-0.06279051952931333,10.56011106963046,0.06279051952931337,-0.06279051952931333,0.7501110696304595
0.19868904006955324,-0.2063282478558208,10.690721237963226,0.18220127009004478,-0.1255189684035535,0.8036799675816306,0.11926389700570267,-0.13158208690624335,10.600151144637195,0.12483714057405093,-0.12582935126181125,0.7900763149768498
0.28434686328549597,-0.30690063659300254,10.67093944145415,0.1302534550486485,-0.066167003657539,0.8258862817500332,0.1693457944071536,-0.2062462990002586,10.637045856189426,0.18582604363915087,-0.1889369171091432,0.8267280650971172
0.10040466505212425,-0.2702166492282962,10.741879831964383,0.15036938886210677,-0.18858759742802628,0.8412625581918363,0.213002951234317,-0.28664178828086845,10.670603702675297,0.2454612714660424,-0.251920256188105,0.8598081794856197
0.22870450880992446,-0.2655436238486075,10.735412515338345,0.2691525007917311,-0.3286055909799684,0.7948262893183056,0.25024148623700615,-0.3726116903012654,10.700624312578146,0.30346745269676684,-0.31457255610075346,0.8890776306486621
0.3538254872012885,-0.58288627289182,10.76233965079867,0.34859338570961784,-0.38099497776882485,0.9578250618371912,0.2811048833633112,-0.46398104484146585,10.726900312748814,0.3595921410292516,-0.3766729946209185,0.9143191436394655
0.4555673208389095,-0.5647158010549637,10.730638351734278,0.46974574859467144,-0.41455654648453205,1.0585944730494492,0.3056716681551919,-0.560554206611515,10.749219562097185,0.4136077190250893,-0.4379869190144341,0.9353396348192936
0.21753818593050703,-0.7441381482797148,10.576001605543423,0.5783180948774401,-0.4866893744855012,0.9927890601745221,0.3240527838766822,-0.6621123433415856,10.76736772331183,0.4653128255749754,-0.4982663834093126,0.9519724144774322
0.4982328670074356,-0.7492142589846951,10.854173757389038,0.51140676920964,-0.5572973313658394,1.0732053665049932,0.3363886810558845,-0.768411099632563,10.781131138990562,0.5145332772597084,-0.5572510570195895,0.9640791221667881
0.5025022933773164,-0.9916422387224234,10.98727786909146,0.5865680430832213,-0.5914132573778335,0.9620993395673366,0.3428461397637645,-0.8791785039528771,10.790299972402268,0.5611224661624544,-0.614669507763059,0.9715513683540552
0.33877563662100646,-1.0610127789756765,11.021140395306515,0.6302816086688524,-0.7231203521923741,0.982283611048094,0.3436148506731603,-0.9941131934899875,10.79467156709912,0.6049612297450837,-0.6702408570773032,0.9743120610783875
0.19135456928084457,-1.2646689084753195,10.794940613934886,0.6871333243045369,-0.6689550098243151,1.1143954795080113,0.3389037884922436,-1.1128830270608314,10.794053973890227,0.645957201821669,-0.7236767927346279,0.9723164015925015
0.1339354661641669,-1.296953392198466,10.825357936954296,0.7268729723351717,-0.8229773180583844,1.0107860355910534,0.3289374194264554,-1.2351241498549794,10.788269588437261,0.684043667051544,-0.7746839174108503,0.9655525382639751
0.41093487265389994,-1.2683232991974465,10.785078298864251,0.6673717720132336,-0.8514421940386124,1.0401054923841762,0.3139517925083817,-1.3604405653844305,10.777158838128871,0.7191779543335002,-0.8229664019177095,0.9540418731959719
0.24783496829367177,-1.4182303522988837,10.624533480245189,0.8036241438150913,-0.8199776290783878,1.0087108002463732,0.29419057251710357,-1.4884042596773952,10.760583853139101,0.7513394166204633,-0.8682289036157602,0.9378390209608737
0.4507496157611547,-1.6347067545902958,10.786516554143967,0.7974983119704843,-0.9539616529414235,0.9114427921995081,0.26990107933297214,-1.618555910602449,10.738432053885163,0.7805270556194893,-0.9101797028373326,0.9170314234290217
0.2444580460286076,-1.83625555136284,10.82676017749479,0.8114533942318427,-1.06546828669609,0.8913588928684553,0.24133040448497978,-1.7504062014658905,10.710619585672653,0.8067568592564172,-0.9485340034131721,0.891738628848752
0.3955886745422028,-1.936882138681785,10.590031784492005,0.8630614584813016,-1.0378557174822878,0.8863898235750716,0.20872167991521207,-1.883437743013536,10.677094531328796,0.8300589273720069,-0.9830173378405578,0.8621112470541002
0.06392948048193016,-2.0986004686201354,10.784270363911427,0.8581882845302194,-1.0409022602774478,0.926847138171427,0.17231057622907964,-2.0171075921111217,10.637839834217102,0.8504744666328169,-1.0133690134569724,0.828329595932852
0.06884041688657769,-2.1110066517023065,10.624519560460929,0.8154046325291637,-1.090084166444164,0.9360592531103447,0.13232210761904095,-2.150850339183465,10.592875867289669,0.8680527389010378,-1.0393455333577102,0.7906020570962228
0.06494629503001706,-2.3547760822697077,10.51203224401572,0.8906771062805072,-0.9847168089835608,0.7864572920795164,0.08896781804014331,-2.2840817205361064,10.542262588795888,0.8828480481942163,-1.0607239248396692,0.7491631610906893
0.23113480604009182,-2.449793948127749,10.430094484366286,0.9211494826252087,-1.102660507750062,0.6818792724303262,0.04244341799105311,-2.4162026965779093,10.486101231888878,0.8949168498292497,-1.0773049089368165,0.7042714245377495
-0.029766526566397965,-2.638150768691823,10.364546256559027,0.8154594918705439,-1.0911776122103383,0.6403221183841915,-0.007073066546378404,-2.5466039233301823,10.424535483542181,0.9043150614081474,-1.0889158471487115,0.656206963345276
-0.012228781511649259,-2.6695782143454077,10.248717614403798,0.9359283228256003,-1.0520716075601415,0.7107919452694389,-0.05942258166424286,-2.6746705330406755,10.357752117725447,0.91109564906095,-1.0954134057056608,0.6052689076763187
-0.08896011542985484,-2.9603145784887284,10.118469283094424,0.8871080440458846,-1.1505279497756842,0.5819366385362571,-0.11446573056246412,-2.799787130749496,10.285981058438043,0.9153065539792964,-1.0966858835562854,0.5517726457584062
0.07090881804491275,-2.711297437244464,10.192927562752145,0.9566851786495467,-1.1493430004367788,0.5536487993154074,-0.17208283108098388,-2.921342907711828,10.20949485965567,0.9169890139843028,-1.0926551575418268,0.4960469249321426
-0.10179084672013866,-2.9968885774338325,10.18232381879262,0.8213314801978768,-1.060569272528858,0.505517478945234,-0.23217333602277557,-3.038736769976858,10.128607601153252,0.9161763229671758,-1.083278206720229,0.4384308396234363
-0.5497499587927609,-3.0442229691425946,10.095355992722093,1.0055808132032875,-0.9704642293218347,0.3939026470149717,-0.2946546225136497,-3.1513823813125006,10.043673211146858,0.9128930578657015,-1.0685481872610605,0.37927073721286936
-0.32662691740195715,-3.297121034139651,9.981157674717437,0.8616713101009943,-1.039034617465843,0.4015742594602882,-0.3594601727050536,-3.258713024049202,9.955083238356247,0.9071547887833754,-1.048495039453946,0.31891707408122494
-0.47538170460106455,-3.229434280587777,9.767242827209113,0.868913605720406,-0.9954677817771586,0.4096844780457922,-0.4265371837214409,-3.36018618912499,9.863264107046616,0.8989682733419977,-1.023185618839324,0.2577212554206071
-0.4164585050436862,-3.44127981090451,9.81858278530642,0.9144946122299993,-1.0111152345771188,0.16485469986613213,-0.49584365934818786,-3.455287817320804,9.768673898511077,0.8883321218251936,-0.9927233539516812,0.19603249367867062
-0.4696520656484112,-3.4545214041898316,9.725616640079448,0.8477005987879174,-0.8081416926391453,0.16591630096105053,-0.5673450490775046,-3.5435361269089762,9.671798710998202,0.8752379055691493,-0.9572474433354116,0.1341947216858875
-0.5090508647336482,-3.7503854837968715,9.63218973771877,0.9119453250816354,-0.9177304734871687,0.01137883244520814,-0.6410105113926381,-3.6244849781085446,9.57314865702886,0.8596716678314003,-0.9169316140418937,0.07254359751436898
-0.5624824260084429,-3.651657159512043,9.49678339821145,0.8804750692601888,-0.7972025766223323,0.0091100873655886,-0.7168088872918162,-3.6977267411707126,9.473253562212845,0.8416157844422109,-0.8719824724616223,0.011403638821490841
-0.6635950817383178,-3.8005743563384615,9.220547597527547,0.7971578201979294,-0.7931152081217465,-0.04665542003497178,-0.7947044768595632,-3.762894651875713,9.372658432979552,0.8210511113052894,-0.8226374858452674,-0.04891447528459941
-0.9068467335565411,-3.6832017640467267,9.311029110351992,0.753954779663395,-0.8018265272394278,-0.16518681110636296,-0.8746527161204753,-3.8196646549633373,9.271918762071726,0.7979593476070778,-0.7691626390290347,-0.10811639709507279
-1.0395372451383051,-3.751589395489321,9.071252088492272,0.7484050063838501,-0.6865502028995467,-0.0861139364639171,-0.9565958534968708,-3.8677567518208145,9.171595740291362,0.7723255376977907,-0.7118498155645621,-0.16592636107603248
-1.0514075521170707,-3.9514067993351336,9.16700630010353,0.8612225930606294,-0.7214659873396979,-0.2203507803109474,-1.040458725060918,-3.906935882949158,9.072251440980944,0.744140631231657,-0.6510139555830745,-0.2220891575816392
-1.1154399497611764,-3.8054233128315906,9.042763776017422,0.671782622270506,-0.46924298371608825,-0.3031315120765122,-1.1261447256145836,-3.937012387745592,8.974444040282153,0.7134040204247035,-0.5869900442791842,-0.2763717972613027
-1.3171421205653433,-3.7955336165006304,8.97018414326005,0.6846835079059977,-0.5776441744226811,-0.27927229434985695,-1.2135320686816775,-3.9578420935122915,8.878723131598912,0.6801259752414406,-0.5201299849221754,-0.3285648376873965
-1.225705560214898,-3.7496623997190968,8.836808671838032,0.6799522852749971,-0.3947060757030767,-0.43543232932400067,-1.302470423010075,-3.969326091997517,8.785625187195286,0.644329901896157,-0.4507994088869592,-0.37848334856674914
-1.1993157235963938,-3.810979776726077,8.668865353851883,0.6006012077472909,-0.3958348734501095,-0.4155032478600819,-1.392778006411309,-3.9714102650044802,8.695669213790259,0.6060543570906877,-0.37937447248683065,-0.42596749779338644
-1.450174380273214,-4.115774779257515,8.544164365869108,0.5878653838377267,-0.41665486942099583,-0.4771564203396331,-1.4842392099395965,-3.9640846206213887,8.609352642678262,0.5653547596517319,-0.30623868656919107,-0.4708827474836462
-1.625731738868316,-3.9632964790912855,8.573226966673433,0.5523129944684388,-0.22617508313450493,-0.46100016247915454,-1.576602816726782,-3.9473824985326758,8.52714748859522,0.522304752328868,-0.23177982011771708,-0.5131196568769029
-1.6290723537725005,-4.159918287598461,8.595324511767837,0.4738355696442095,-0.11073789211986884,-0.5032375536971948,-1.669580870391144,-3.9213796969010217,8.44949680552133,0.47699717904000594,-0.15638691372404148,-0.552593297391731
-1.6114548797636534,-3.7465003972957245,8.501590110056393,0.475788940321634,-0.037069193056197214,-0.5177477103300236,-1.762848237925221,-3.886193564819768,8.376811462074926,0.4295446563090767,-0.08044743299224838,-0.5892422939456895
-1.7910018276138753,-3.83164532537675,8.435765302336234,0.4117144630196702,0.005475177852826536,-0.6310991446139187,-1.856042901393353,-3.8419820937876814,8.309467254264373,0.38007973149002516,-0.004344585962281183,-0.6230275155751753
-1.9527955435409736,-3.7845121087216302,8.158379246853789,0.38097147130915415,0.0547243976426461,-0.6876045781993331,-1.9487670016493783,-3.78894302960074,8.247802369224653,0.32875463404802163,0.07154517728553783,-0.653930447092957
-1.9653409139271123,-4.047128881204762,8.09184431585279,0.33821396657734754,0.1946183632958658,-0.644656737713902,-2.040588645611699,-3.727313013098814,8.192115210208957,0.27574063911366997,0.14685447034261276,-0.6819512816411383
-2.0179920592127605,-3.5526866611526295,8.214771515528536,0.3174892454957611,0.23859449076568995,-0.7513723202682628,-2.1310444763942002,-3.6573667449986518,8.142662590509403,0.22122707421136498,0.22122707421136462,-0.7071067811865476
-2.2782814851457336,-3.5280762581876997,7.973111900880442,0.165375081626909,0.3309338847935073,-0.6616502306370684,-2.2196429927884713,-3.5794161572516896,8.09965830206549,0.16542001002085535,0.2943198363983705,-0.7294279579402738
-2.2553387885775353,-3.630603752754888,8.029246520589,0.09187112918615435,0.45382544868312863,-0.7689845754208665,-2.305868591260051,-3.4938095616380087,8.06327206315692,0.1085406838785466,0.3658043665950109,-0.74895763408767
-2.2801505511679436,-3.4119219821112043,8.113611802571361,-0.0006431725908765673,0.3965418872545853,-0.7319767881482638,-2.3891862898452305,-3.400930736260755,8.033628848603069,0.050823710185036314,0.4353685333049664,-0.7657479398810906
-2.4980499734797683,-3.3453514918171576,8.139654613173766,0.0004284313628462235,0.5557977233730792,-0.7914746544960429,-2.4690470792669106,-3.301197902790473,8.01080860511256,-0.007484865198055357,0.5027177680901401,-0.7798578109485078
-2.511839099924148,-3.217193874264393,7.962830239585407,-0.03273700709078109,0.635622209567676,-0.7856252181915611,-2.5448938324554966,-3.1950625421908025,7.9948463536369285,-0.06612960913257449,0.567576185612612,-0.7913505445717961
-2.4111002656848033,-2.7523515100753926,8.21604888748055,-0.1797342613459627,0.6033150404292417,-0.727736015279924,-2.6161676897693265,-3.083007994590931,7.985732679576895,-0.12484778866203478,0.6296875283938439,-0.8002914717477752
-2.6392221934337425,-3.0797934483324676,7.981255959894604,-0.266254057058248,0.6698917043484681,-0.7438479376395588,-2.6823148239390138,-2.9655477901815255,7.9834146102757755,-0.1833714508028208,0.6888159452698275,-0.806745797211613
-2.6288812429345843,-2.7540728487691224,7.948189933838863,-0.26722912066922216,0.8108769630270845,-0.8202842835302743,-2.742793476554727,-2.8432236625791996,7.987796877246611,-0.24142945001140437,0.7447466119959039,-0.8107766535037508
-2.8734287878787277,-2.7476265201501455,8.078974135349652,-0.26446425948487023,0.7135861990588781,-0.8300342192078227,-2.797081147262905,-2.7166032039533663,7.99874355789074,-0.29874938645927124,0.7972862014726254,-0.8124434078889765
-2.7792349026586773,-2.4003422564199917,8.05592556525744,-0.3763570665592901,0.7203564764876269,-0.8206668200479513,-2.844681808246574,-2.586277132100051,8.016080087996691,-0.35505942707177446,0.8462632097641971,-0.8118002528235356
-2.6821344897941564,-2.4907128840274257,7.996800647144619,-0.3406397315198833,0.8399617719450123,-0.7863842015055842,-2.8851330105281114,-2.45285615318347,8.039595632036063,-0.41008999064947543,0.8915281426112884,-0.8088951020682404
-2.9052950935107655,-2.2417457726935637,8.118933038071328,-0.41643349101023397,0.9433737465476258,-0.8147471144888447,-2.918012745607664,-2.3169674195029653,8.069045793234936,-0.46357528779275603,0.9329535656488164,-0.8037688058160373
-2.876983942425501,-2.1601470718765166,8.134245009816143,-0.5343050110961888,0.9928120506100858,-0.7106788838592927,-2.9429459263092728,-2.179250598707327,8.10415563969334,-0.5152547153216873,0.9704340201690256,-0.7964546896731439
-3.0002701495658473,-1.8267273559628998,8.123590619461604,-0.5754428699847499,1.003616423478924,-0.8391730385662588,-2.959610354714179,-2.0403535885961723,8.144623016610154,-0.5648741130027655,1.0038858051507278,-0.7869784142960262
-2.8500071682818295,-1.914873459898941,8.302437479966933,-0.7122007082533991,1.0993155152430154,-0.715877415691107,-2.9677420528430747,-1.9009279291794356,8.190122108158073,-0.6121868973107616,1.0332466255186021,-0.7753581451818047
-3.09646815888824,-1.7316370225929947,8.461350918194112,-0.5503511598439081,1.1094866090444537,-0.7063577228288753,-2.9671398432728777,-1.7616239801460507,8.240307206000574,-0.656955092398253,1.058475106290813,-0.7616050157158425
-2.94037368835818,-1.613170454990497,8.439867351799567,-0.6502850186341652,1.1398291769408386,-0.6442588987246226,-2.9576690819350344,-1.6230859464783132,8.294816635139357,-0.6989502822372072,1.0795501724806864,-0.7457238612116278
-3.002773901035939,-1.6205462385362859,8.403514009271003,-0.6469892016182724,1.1725054718310737,-0.719343941641355,-2.9392644635647507,-1.4859468468612147,8.353276782035405,-0.7379545099470601,1.0964702953715593,-0.7277141973857507
-2.9190582961703417,-1.3706103925762128,8.275117924961735,-0.716200172946321,1.1056668595970263,-0.6676620127081133,-2.9119318411152904,-1.3508235281114547,8.415306165068928,-0.7737611506298628,1.1092526070850952,-0.7075714134882477
-2.883152549043116,-1.305877111519638,8.39356763010276,-0.8370978126844778,1.105897091962771,-0.6493989534845611,-2.8757490232384546,-1.2183118335741117,8.480519483687928,-0.8061757826730251,1.1179318871839787,-0.6852881480996619
-2.808976061868804,-1.185159945924144,8.609662921189472,-0.7948971612976254,1.1758027617427778,-0.5304705782210501,-2.830865537871883,-1.0889820339760394,8.548531580303125,-0.8350170796003524,1.1225594273323862,-0.6608558143156444
-2.6526935130137033,-0.9787094865824064,8.697557831042817,-0.8983239943822608,1.0893177539206227,-0.6232744707512825,-2.77750137420577,-0.9633746254587188,8.618961248331313,-0.8601177403552979,1.1232017826981842,-0.6342662405448989
-2.824578759679674,-0.717584618836066,8.70691663393482,-0.8824900802015072,1.141373348979919,-0.6313090851597803,-2.71594473894066,-0.8419965915300367,8.691434820919037,-0.8813254706316558,1.1199394217130483,-0.6055133933077599
-2.6474796743075233,-0.8341865084688032,8.820235727713726,-0.8751149351688833,1.135406031667961,-0.48655817432355986,-2.646548884931165,-0.7253182137762888,8.765589477869815,-0.89850402180003,1.112865288886636,-0.5745951490965323
-2.630461344482651,-0.6227485074486447,8.698462415752704,-0.8533930423759604,1.0743891907511216,-0.6074254861419237,-2.56972809024402,-0.613770500860549,8.84107621314547,-0.9115342874021382,1.1020832984625104,-0.5415150834052924
-2.463914088273392,-0.3810612635834613,8.929520864288682,-0.9468884089826852,1.0580243344467777,-0.42161706211278654,-2.4859528826599955,-0.5077432872656342,8.917562411927843,-0.9203154503915231,1.087706779664537,-0.5062842463290703
-2.5295119950881575,-0.3790254200854117,9.117943738223524,-0.8405776167552781,1.0456637665154243,-0.5370640869239836,-2.3957446181819178,-0.4075840332119919,8.994733994442008,-0.9247661675730618,1.0698568969710882,-0.4689228955621608
-2.3011555330551934,-0.38926212270052407,8.915806732122528,-0.8563296618381893,0.8858994865645495,-0.4476026527741752,-2.2996695318109968,-0.3135973360675761,9.07229709331436,-0.9248257713033105,1.0486610711350268,-0.429462159107736
-2.25131136145053,-0.4091507630329865,9.277130812262431,-0.8796137280508336,0.9834034006031886,-0.3868967912135397,-2.198332384542794,-0.2260451422746501,9.149979241863944,-0.9204554627042161,1.0242514284167048,-0.38794560148691626
-2.114250198296135,-0.09078843063056374,9.224554123647732,-0.955896598825326,1.127575907169099,-0.3146204754918342,-2.0923698322228637,-0.14514762823538074,9.227530062052397,-0.9116394656306196,0.9967633066090122,-0.34443066867251565
-1.9412696787501662,-0.011298874152237598,9.417028651617558,-0.8868838960070871,1.050262909903618,-0.1773112640964692,-1.9824436397802825,-0.07108469954558505,9.30472145246652,-0.8983861066013675,0.9663338468232324,-0.29898998836407475
-1.669700373411014,-0.09709464934767408,9.483071156990485,-0.8180298630996696,0.8943122045185656,-0.16980572980445247,-1.869233858774729,-0.003998041158206789,9.381347288287829,-0.8807287830041359,0.9331006996123408,-0.2517125035838882
-1.8360377711298295,0.054652710848781254,9.473435973588611,-0.8028449484209026,0.9246652853667393,-0.20589463850943576,-1.753432077631316,0.056006362931257936,9.457222656335343,-0.8587267802285505,0.8972008728014932,-0.20270441894602495
-1.4949797487952337,0.1090083246940433,9.510402614626102,-0.7161271422893448,0.8542477797266657,-0.1632693261737224,-1.6357348429771972,0.10885533264400815,9.532182658599167,-0.8324658980477588,0.8587697463687303,-0.15208994038607737
-1.5360882620250462,0.25061676985535175,9.586500798119326,-0.7721299871523709,0.8583259393526874,0.02087733271631652,-1.5168373377759337,0.15450531687782065,9.606080826906185,-0.8020588475957001,0.8179402768948051,-0.10001179070364001
-1.2876086740554262,0.13921924593244894,9.625945852509762,-0.7765182558983833,0.7748207471367179,0.0186252227700459,-1.397427388144363,0.19293904387587257,9.678787199225448,-0.7676453826807025,0.774842410528496,-0.04663148503354275
-1.2794297795573584,0.34645781477141524,9.744523649232002,-0.6800698128401939,0.7655970769845021,0.009994823158009349,-1.2781798564840712,0.22416210042125229,9.750186114447663,-0.7293921329051133,0.7296027191655116,0.007870647604012758
-1.2274197316931383,0.15985858932375513,9.858567500768018,-0.6254325276339848,0.7615888555102875,-0.010622111787314634,-1.159751464473714,0.24819954047230347,9.820173787149658,-0.6874921110607608,0.6823442697095932,0.06329570815558577
-0.9101000798733165,0.38403550810214837,9.907715724917939,-0.6348385872427931,0.7062200649711063,0.0972478590714295,-1.042776076087157,0.26509261808945805,9.88865572684301,-0.6421638734426295,0.6331867309852516,0.11942674551555033
-1.1276434414254632,0.32537207391027645,10.138596141050995,-0.5672630720918187,0.6258285175364502,0.1927307818836546,-0.927860458574294,0.274895731307378,9.955544067536271,-0.5936503189373861,0.5822467172289185,0.17602955418862698
-0.8406480491659404,0.27584598409346794,10.311966235874245,-0.47264348300275855,0.5931842759028052,0.2262751242686858,-0.8155805286128329,0.277673653457334,10.020754873203673,-0.5422171208367652,0.5296383612348522,0.23285375358255103
-0.8371117339856597,0.2986087714124324,10.099576902950089,-0.3445708431347001,0.3912226601367034,0.2812473012937055,-0.7064780818490801,0.27349911684308664,10.084205483091043,-0.4881507941061951,0.4754741043163498,0.2896341468618844
-0.4500482513382056,0.33215653703549886,10.232473053912264,-0.3556408011937502,0.4299806434675972,0.2972275133072841,-0.6010579969249067,0.2624508011075726,10.145811957880179,-0.43175641008646215,0.4198656844064591,0.34609235290811463
-0.5709687398855442,0.1395350901250071,10.107640939645636,-0.3400880372755435,0.4283038348654047,0.3978580896046662,-0.49978589986575106,0.2446117655514804,10.205486683777739,-0.37335498007663526,0.3629252980097827,0.4019387002518705
-0.22340834482508484,0.18781846267707877,10.393074260108955,-0.33708502903530785,0.3551101455284049,0.5036702779979174,-0.40308627131678726,0.2200683514789261,10.26313618680438,-0.31328053867559097,0.3047669064687777,0.4568743669738374
-0.4140318663591959,0.2153062576700217,10.302310009647348,-0.2759973527270315,0.20415561971839843,0.5036805599227973,-0.3113409774168861,0.18890956768539768,10.318659204140149,-0.25187696686899735,0.24550765225887025,0.5105937456399056
-0.25246458073664324,0.26640744478665424,10.41450879228569,-0.18801008227422777,0.2540400445367119,0.6619782302199375,-0.2248882048810979,0.15122695973321842,10.371945053523485,-0.18949460335271637,0.18526934690276126,0.5627870074914417
-0.23636623399074175,-0.127266225918453,10.31454403433208,-0.10907794354542721,0.09172872466597706,0.7523154435330746,-0.14402178185844294,0.10711495187447526,10.422872335567838,-0.12648670019793437,0.12417998871158265,0.6131428355139793
0.10623022892381756,0.06719861841813084,10.611519895068835,-0.034616168798535345,0.16881470731967224,0.7359473183631828,-0.06899086804121038,0.056671639510742715,10.471307997585157,-0.06320578541407486,0.06237526602260386,0.661351291822261
0.01681307444134016,0.09911051417569709,10.570616773517177,0.07094086556552137,-0.007884385335139807,0.7760894841938546,-7.395044438413208e-16,2.5358859030492e-16,10.517106781186548,-2.805784317673591e-16,3.591909199649499e-16,0.7071067811865474
0.002977877291661865,-0.0425358337990887,10.520125109678817,0.1273263462295397,-0.19447789326829412,0.7543942125502845,0.0627905195293123,-0.06279051952931275,10.560111069630459,0.06279051952931272,-0.06279051952931265,0.7501110696304591
0.004508783594440055,-0.09032454242867366,10.487521609546237,0.14730599081693047,0.04141783928835774,0.8512928783336255,0.11926389700570218,-0.13158208690624226,10.600151144637195,0.12483714057405082,-0.1258293512618101,0.7900763149768498
0.277092167906562,-0.09017491036709438,10.691449548653607,0.1367507968468481,-0.22931470718040836,0.8715276308923499,0.16934579440715294,-0.20624629900025748,10.637045856189424,0.18582604363915045,-0.1889369171091421,0.8267280650971168
0.30430566748372545,-0.1383073159468307,10.767665343422989,0.23564707575922658,-0.17871209463069876,0.789813173374468,0.21300295123431692,-0.2866417882808686,10.670603702675297,0.24546127146604252,-0.25192025618810515,0.8598081794856198
0.26207636811178986,-0.5739829439708932,10.902797949902284,0.3003644712904298,-0.4199684875752196,0.9631399814415569,0.2502414862370057,-0.3726116903012652,10.700624312578146,0.3034674526967666,-0.31457255610075324,0.889077630648662
0.2737463440249695,-0.3676959233340316,10.726462481999405,0.3973516004263058,-0.41811051204327276,0.883479953784921,0.2811048833633113,-0.46398104484146685,10.726900312748814,0.3595921410292519,-0.3766729946209195,0.9143191436394656
0.32846131978796517,-0.38735778203877036,10.8133934264492,0.4356366785122055,-0.45672620630194394,0.9760087648904512,0.30567166815519153,-0.5605542066115156,10.749219562097183,0.4136077190250892,-0.43798691901443465,0.9353396348192935
0.4577197177515949,-0.392248722509162,10.68574068685081,0.5306636891130267,-0.4380029971777648,1.0600947041024933,0.32405278387668224,-0.6621123433415862,10.76736772331183,0.4653128255749757,-0.49826638340931323,0.9519724144774323
0.4057571863893852,-0.7163012424360017,10.889407386936139,0.6058901442645526,-0.5603754873029487,0.9418360497406291,0.33638868105588404,-0.7684110996325633,10.781131138990563,0.5145332772597083,-0.5572510570195898,0.9640791221667883
0.36190244021978174,-0.8128821973145521,10.936180445748542,0.597173303910571,-0.5461443318122334,0.9847960877414236,0.34284613976376466,-0.8791785039528769,10.790299972402268,0.561122466162455,-0.6146695077630587,0.9715513683540552
0.04997106635503673,-1.0790314392426041,10.941711683646435,0.6406200948148433,-0.6008852763865433,0.9901785457706606,0.3436148506731602,-0.9941131934899872,10.79467156709912,0.6049612297450839,-0.6702408570773027,0.9743120610783876
0.38962604538298373,-1.1551466015865421,10.634010295434349,0.6658985042610203,-0.7689728727355953,0.9680827210126214,0.33890378849224384,-1.112883027060832,10.794053973890227,0.6459572018216696,-0.7236767927346284,0.9723164015925014
0.2587249352776285,-1.24687478992698,10.883588754071365,0.7618507627132889,-0.8691382029452852,1.0050994226766683,0.3289374194264551,-1.2351241498549799,10.788269588437261,0.6840436670515442,-0.7746839174108507,0.965552538263975
0.2307556485540433,-1.4466535357540908,10.50656381907025,0.7424873204331522,-0.797371398375287,1.0160374850927576,0.3139517925083812,-1.3604405653844305,10.777158838128871,0.7191779543335002,-0.8229664019177093,0.9540418731959719
0.5697317602805827,-1.5362777228808784,10.853118113843076,0.7255570960719839,-0.9240199148534003,0.9402238801167946,0.29419057251710345,-1.4884042596773963,10.760583853139101,0.7513394166204637,-0.8682289036157611,0.9378390209608735
0.277513642927449,-1.6450753487405991,10.820659645724568,0.7334385005329689,-0.9822866807994621,1.0083294065307165,0.26990107933297125,-1.6185559106024492,10.738432053885164,0.780527055619489,-0.9101797028373325,0.917031423429022
0.20109079962248938,-1.7333537754404114,10.725136871371962,0.8283114664564919,-0.8493871519339515,0.8248698640671825,0.2413304044849789,-1.7504062014658905,10.710619585672653,0.8067568592564165,-0.9485340034131715,0.8917386288487525
0.19731769072276692,-1.9785402635015725,10.76118836998252,0.8629141970420545,-0.9749025247252178,0.8529060298339993,0.2087216799152114,-1.8834377430135365,10.677094531328798,0.8300589273720066,-0.9830173378405581,0.8621112470541004
0.11033111840046306,-1.9099559058583866,10.52535656851368,0.854621136712873,-0.9661199510719858,0.7077530024995597,0.17231057622907875,-2.0171075921111217,10.637839834217102,0.8504744666328167,-1.0133690134569724,0.8283295959328523
0.1382036851431091,-2.142630394113409,10.778889543930836,0.937800359822139,-1.045321656609157,0.8608091824093402,0.13232210761904017,-2.150850339183465,10.592875867289669,0.8680527389010376,-1.0393455333577102,0.7906020570962224
0.13763884552865713,-2.191697305345902,10.502210858538842,0.8918472352527254,-1.069453309640996,0.7839079532627272,0.08896781804014253,-2.2840817205361064,10.542262588795888,0.882848048194216,-1.0607239248396692,0.7491631610906889
0.17966056349656415,-2.4497860205511017,10.49919211152056,0.9494017130807814,-1.1274164297214335,0.6759476515354848,0.042443417991052446,-2.4162026965779093,10.486101231888878,0.8949168498292496,-1.0773049089368163,0.7042714245377496
-0.005404215683468931,-2.5601315982633177,10.510275519041636,0.9395743985847875,-1.1349573766895988,0.5501288586595813,-0.007073066546379181,-2.546603923330182,10.424535483542181,0.9043150614081471,-1.0889158471487115,0.6562069633452761
-0.05311566378232581,-2.6822034125520253,10.469432634203987,0.8847170335859167,-0.9413691866256524,0.6249177810207612,-0.05942258166424352,-2.6746705330406755,10.357752117725445,0.9110956490609499,-1.0954134057056608,0.6052689076763191
-0.2021483105481009,-2.8263717078923243,10.325573987072037,0.8004420212693907,-1.088309277305106,0.5602986371042453,-0.114465730562465,-2.799787130749496,10.285981058438043,0.9153065539792963,-1.0966858835562856,0.551772645758407
-0.2522890519836044,-2.9341223984390323,10.176919762229817,0.9193387255121241,-1.0111862430829686,0.49575898163551346,-0.17208283108098477,-2.921342907711828,10.20949485965567,0.9169890139843025,-1.092655157541827,0.4960469249321438
-0.2877553745322227,-3.2103331317536443,9.988636207557834,1.0067618977160222,-1.119636442589848,0.5311867647465582,-0.23217333602277634,-3.0387367699768584,10.128607601153252,0.9161763229671757,-1.0832782067202287,0.43843083962343654
-0.4332318583360759,-3.110431878690306,10.061183197819433,0.9475701209914065,-1.0874103523916936,0.4225918135422223,-0.2946546225136504,-3.1513823813125006,10.043673211146857,0.9128930578657016,-1.0685481872610605,0.37927073721286847
-0.5607786800795095,-3.1823318927060935,9.991825489015138,0.8616181610753606,-0.9621963109703467,0.2865031566659233,-0.3594601727050546,-3.2587130240492024,9.955083238356247,0.9071547887833755,-1.048495039453946,0.31891707408122405
-0.4854578624337178,-3.3371621510884815,9.840203552483956,0.974916831142837,-1.0607338533430497,0.34965142929084736,-0.4265371837214418,-3.36018618912499,9.863264107046616,0.8989682733419977,-1.023185618839324,0.25772125542060653
-0.44718374506841874,-3.6597564510738727,9.704398383854807,0.9037491967929795,-0.9513235852924984,0.3258482891268084,-0.4958436593481884,-3.455287817320804,9.768673898511077,0.8883321218251939,-0.9927233539516813,0.19603249367867043
-0.42747831843318174,-3.448322071918156,9.594253350134471,0.847552584091111,-0.8896265911410818,0.16709481325793074,-0.5673450490775059,-3.543536126908976,9.671798710998202,0.8752379055691489,-0.9572474433354113,0.13419472168588786
-0.7023499119634424,-3.6060048167514833,9.451983006781811,0.9598670456763942,-0.9319579375695316,0.08967119753231095,-0.6410105113926392,-3.6244849781085455,9.573148657028861,0.8596716678314001,-0.9169316140418939,0.07254359751436967
-0.7456763365383112,-3.804989966699286,9.57822918624621,0.8588615046231876,-0.8986629644505201,0.06767696575521341,-0.7168088872918168,-3.6977267411707126,9.473253562212843,0.8416157844422106,-0.8719824724616226,0.011403638821491924
-0.7625175131785555,-3.73596778329015,9.36011720090169,0.8098700755538703,-0.7675068040067026,0.03860555506845964,-0.794704476859563,-3.7628946518757136,9.372658432979554,0.8210511113052893,-0.8226374858452679,-0.04891447528459833
-0.833226717624886,-3.811586302138267,9.36626401877041,0.8696573703658225,-0.7533046482524065,0.023214064231328158,-0.8746527161204765,-3.819664654963337,9.271918762071724,0.7979593476070775,-0.7691626390290333,-0.10811639709507448
-0.9163137308592697,-3.814142473908263,9.14873727151668,0.8299159425505139,-0.7604779001123481,-0.1654645049004192,-0.9565958534968729,-3.8677567518208145,9.17159574029136,0.7723255376977904,-0.7118498155645613,-0.1659263610760339
-1.0713870817037292,-3.9318475999159483,8.90093327250585,0.7667335945849652,-0.6248702795346462,-0.28346471280972974,-1.0404587250609194,-3.906935882949158,9.072251440980942,0.744140631231657,-0.6510139555830736,-0.2220891575816406
-1.2273248826570013,-4.06522666548585,9.062756222312645,0.7696033639034168,-0.556692414802465,-0.2501845197012052,-1.1261447256145845,-3.937012387745592,8.974444040282151,0.7134040204247037,-0.586990044279184,-0.2763717972613038
-1.2969719240472497,-3.8731964527770284,8.852709361095664,0.6957083718350373,-0.4900989274124114,-0.353003689945922,-1.2135320686816773,-3.9578420935122915,8.878723131598912,0.6801259752414409,-0.5201299849221754,-0.32856483768739725
-1.3131368537107624,-3.8038327071162557,8.874916084491543,0.6638803136456515,-0.36757627857299,-0.36762687634617186,-1.3024704230100759,-3.969326091997518,8.785625187195286,0.6443299018961577,-0.45079940888695935,-0.37848334856674937
-1.452327002918708,-4.005214582377184,8.517785100410837,0.6874826769657254,-0.35831553236190145,-0.557484972493109,-1.3927780064113098,-3.971410265004481,8.695669213790259,0.6060543570906883,-0.37937447248683076,-0.42596749779338666
-1.563994790229905,-4.07101397034514,8.452932864737935,0.5832863078688679,-0.28136799195436146,-0.47940209905111875,-1.484239209939596,-3.964084620621391,8.60935264267826,0.565354759651733,-0.3062386865691921,-0.47088274748364634
-1.67448225863755,-3.9149785636897,8.59328074825091,0.6101873009450882,-0.23083149833822306,-0.5527392228487297,-1.5766028167267832,-3.9473824985326766,8.52714748859522,0.5223047523288677,-0.23177982011771753,-0.5131196568769023
-1.4912853219005928,-3.8431486197414206,8.449135507556049,0.4956200571443191,-0.17024496316839619,-0.522119092736512,-1.6695808703911452,-3.9213796969010235,8.449496805521331,0.47699717904000605,-0.15638691372404198,-0.5525932973917301
-1.8162425620651599,-4.027404636417537,8.411818163644968,0.505503873201975,-0.06216335761294227,-0.6524893025155037,-1.7628482379252208,-3.8861935648197696,8.376811462074926,0.429544656309077,-0.08044743299224899,-0.5892422939456882
-1.835993225139619,-3.696369183083879,8.299060684582008,0.4211634207283806,0.08217500741725325,-0.6282523982102514,-1.8560429013933528,-3.841982093787683,8.309467254264375,0.38007973149002605,-0.00434458596228271,-0.6230275155751741
-2.0404497397549015,-3.8572268087842287,8.256758059760891,0.431794744279851,0.09305370362855762,-0.6527043564516947,-1.9487670016493794,-3.7889430296007403,8.247802369224653,0.3287546340480214,0.07154517728553889,-0.6539304470929581
-1.9005746707514515,-3.641749887084967,8.182773653543112,0.1511945899912597,0.12134721260818052,-0.642241414166157,-2.0405886456116997,-3.727313013098815,8.192115210208955,0.2757406391136701,0.14685447034261284,-0.6819512816411392
-2.1856082414240565,-3.5913435025611715,8.219441266403399,0.24279909453924747,0.14827225302340385,-0.733009721441087,-2.131044476394201,-3.6573667449986527,8.142662590509403,0.2212270742113655,0.2212270742113646,-0.7071067811865481
-2.028710634266494,-3.5109324250582956,8.044105284155716,0.22848787666953618,0.26486731922337947,-0.7327652581556123,-2.219642992788471,-3.579416157251691,8.09965830206549,0.1654200100208562,0.29431983639837045,-0.7294279579402743
-2.0677237246306928,-3.551268212900301,8.033161906310365,0.1340883960984956,0.37037801046048835,-0.7630961568246631,-2.3058685912600523,-3.4938095616380123,8.063272063156917,0.10854068387854793,0.36580436659500987,-0.7489576340876701
-2.355387610170509,-3.3627791378239387,8.151560861019762,-0.04703462742913905,0.4651275473558548,-0.7925866370283308,-2.389186289845233,-3.400930736260757,8.033628848603067,0.050823710185036286,0.4353685333049662,-0.7657479398810906
-2.3713790818749745,-3.2452121795258493,8.171319842528154,0.04916490083688273,0.6108787745992655,-0.7531046491672788,-2.469047079266912,-3.301197902790476,8.010808605112562,-0.0074848651980549685,0.5027177680901398,-0.7798578109485075
-2.4922618491681705,-3.1934747362096245,7.92615601880217,0.002233051591676888,0.6253747620533128,-0.6934573486426403,-2.544893832455498,-3.195062542190805,7.994846353636928,-0.06612960913257393,0.5675761856126117,-0.791350544571795
-2.674326504848037,-3.100918070151449,7.831797754960302,-0.06972075949155833,0.6510738644031,-0.7729818383335344,-2.616167689769328,-3.0830079945909366,7.985732679576894,-0.12484778866203355,0.6296875283938428,-0.8002914717477746
-2.7584499533896945,-2.8026337193426256,7.941255097571223,-0.036835493414609455,0.7698182504189325,-0.8182884937170344,-2.6823148239390173,-2.9655477901815277,7.983414610275775,-0.18337145080282102,0.6888159452698284,-0.8067457972116134
-2.686922161554516,-3.0123282037875545,8.071539077799379,-0.26163029602956644,0.8277166700235921,-0.7181236046533339,-2.7427934765547306,-2.8432236625792027,7.987796877246606,-0.2414294500114047,0.7447466119959046,-0.8107766535037509
-2.77628816866154,-2.762945907672281,8.081419578502361,-0.2586309296393079,0.8586365249047994,-0.7523771628698569,-2.7970811472629076,-2.7166032039533685,7.99874355789074,-0.298749386459271,0.7972862014726256,-0.8124434078889767
-2.893850978938279,-2.534419386739076,7.937162583984832,-0.3122774403358656,0.741304247308644,-0.8394507146808922,-2.8446818082465772,-2.586277132100054,8.016080087996688,-0.355059427071774,0.8462632097641971,-0.8118002528235356
-2.706994568539203,-2.6076862328646073,7.865511671023752,-0.3521110081312876,0.8834517751628099,-0.8048874572207493,-2.8851330105281154,-2.45285615318347,8.039595632036061,-0.4100899906494762,0.8915281426112895,-0.80889510206824
-3.018381962086438,-2.552518946791255,7.8234255147924765,-0.5081641300879194,0.8093747611838803,-0.7921960191212325,-2.918012745607667,-2.316967419502967,8.069045793234933,-0.4635752877927563,0.932953565648817,-0.8037688058160369
-3.0793082747523566,-2.2076289678594683,8.144642016428294,-0.5098281169120761,0.9582252001185416,-0.7359099177345442,-2.9429459263092754,-2.179250598707328,8.10415563969334,-0.5152547153216875,0.9704340201690262,-0.7964546896731434
-3.076930007924161,-2.1219203972280765,8.163645282686282,-0.6991915179138474,1.078380843315625,-0.8255827570181083,-2.9596103547141803,-2.040353588596175,8.14462301661015,-0.564874113002765,1.003885805150728,-0.7869784142960264
-3.000182040533501,-2.0247275639706217,8.364175948362785,-0.45498866429143414,1.0567249958824878,-0.7012467513712071,-2.967742052843077,-1.900927929179438,8.190122108158072,-0.6121868973107611,1.0332466255186024,-0.7753581451818048
-2.9841902664845925,-1.8017173645916877,8.287891700447382,-0.5723270140093503,1.048226137941796,-0.811271472487541,-2.967139843272881,-1.7616239801460527,8.240307206000574,-0.6569550923982532,1.0584751062908135,-0.7616050157158417
-3.1186268492305276,-1.6805683663878346,8.312255316938847,-0.6531127769667109,1.1269125433714438,-0.6792577310588163,-2.957669081935036,-1.623085946478315,8.294816635139355,-0.6989502822372065,1.079550172480686,-0.7457238612116283
-2.8244638961693918,-1.4784876473892956,8.37250470610305,-0.7174814115806225,1.116652512922812,-0.6501806252807298,-2.9392644635647516,-1.4859468468612174,8.353276782035403,-0.7379545099470589,1.0964702953715586,-0.7277141973857516
-2.8604187456043486,-1.3534323560135202,8.444212143174116,-0.7299866077930788,1.111589270417303,-0.6979305341561131,-2.911931841115293,-1.350823528111457,8.415306165068927,-0.7737611506298626,1.1092526070850952,-0.7075714134882474
-2.9213580155927055,-1.2665236940804554,8.364772189850589,-0.8176932487869208,1.0977752528624336,-0.6346547728829921,-2.8757490232384573,-1.2183118335741139,8.480519483687926,-0.8061757826730249,1.1179318871839787,-0.6852881480996613
-3.0150366552555803,-1.2355671145764144,8.49047235044765,-0.7193446455087711,1.169740968496276,-0.617172966438632,-2.830865537871885,-1.0889820339760414,8.548531580303125,-0.8350170796003525,1.1225594273323862,-0.660855814315644
-2.6769225415427433,-1.2247665091226607,8.51123298725565,-0.8240745026730874,1.1781135725595304,-0.6525193958733354,-2.777501374205773,-0.9633746254587213,8.618961248331312,-0.8601177403552976,1.1232017826981842,-0.6342662405448988
-2.656212847141746,-0.9672110099067166,8.546800014144027,-0.8913748217151384,1.1098563018154728,-0.5510595943529992,-2.7159447389406624,-0.8419965915300388,8.691434820919037,-0.8813254706316558,1.1199394217130485,-0.6055133933077598
-2.7900019947008783,-0.8861100481759625,8.752595043960541,-0.8932338645357661,1.1803330980428135,-0.5398851312042694,-2.6465488849311676,-0.725318213776291,8.765589477869813,-0.8985040218000296,1.1128652888866362,-0.5745951490965329
-2.5199091850122386,-0.655731745225221,8.61338662485514,-0.9243289526773449,1.160088950724116,-0.5449347416407736,-2.5697280902440234,-0.6137705008605514,8.84107621314547,-0.911534287402138,1.1020832984625106,-0.5415150834052931
-2.587236955892416,-0.5419721078871644,8.844293695963575,-0.8387757385181057,1.0467205225183225,-0.5396995718981737,-2.485952882659998,-0.5077432872656363,8.917562411927843,-0.920315450391523,1.0877067796645372,-0.506284246329071
-2.368656407790859,-0.5981920136780363,9.00018720960905,-0.876415147734482,1.1039139306209942,-0.532117798625605,-2.3957446181819204,-0.40758403321199377,8.994733994442006,-0.9247661675730617,1.0698568969710887,-0.46892289556216216
-2.3614963832964975,-0.4751269998731104,9.023144205713052,-0.9406654642261756,1.0482400457978986,-0.47655499115433353,-2.2996695318109994,-0.3135973360675779,9.072297093314361,-0.9248257713033105,1.0486610711350268,-0.42946215910773433
-2.2857307106155598,-0.2878361371237881,9.172321609598676,-0.9095959547763002,0.9929819247053181,-0.47753271311544115,-2.198332384542797,-0.226045142274652,9.149979241863942,-0.9204554627042163,1.024251428416705,-0.3879456014869156
-1.9931327057368045,-0.2053282205904574,9.32578351086993,-0.8987330317721642,0.9083055995108251,-0.34285723230074283,-2.0923698322228663,-0.1451476282353824,9.227530062052395,-0.9116394656306197,0.9967633066090124,-0.3444306686725148
-2.0590207203635913,-0.010230004789462982,9.239615938679378,-0.9630399737440043,1.0203788727111929,-0.23983647275765557,-1.9824436397802856,-0.07108469954558694,9.304721452466518,-0.8983861066013679,0.9663338468232326,-0.29898998836407487
-1.8221290119140263,-0.022074176357693404,9.490430579408063,-0.8642183636123106,0.9253357077803323,-0.2878939466620353,-1.8692338587747312,-0.003998041158209453,9.381347288287829,-0.8807287830041355,0.9331006996123402,-0.25171250358388825
-1.726899021317757,-0.043792471133592775,9.578835348438451,-0.799549940972723,0.8946988983525382,-0.25769185828320845,-1.7534320776313188,0.05600636293125605,9.457222656335341,-0.8587267802285504,0.8972008728014934,-0.20270441894602587
-1.6378832019417402,-0.03536502542837314,9.589404918521975,-0.8845221303791508,0.8554261757364878,-0.21413593329889413,-1.6357348429771998,0.1088553326440056,9.532182658599167,-0.8324658980477584,0.8587697463687296,-0.15208994038607754
-1.6392578507687776,0.18214439960244738,9.497238905047181,-0.7941101695785523,0.8905165184693091,-0.1254005444710575,-1.5168373377759368,0.15450531687781877,9.606080826906183,-0.8020588475957001,0.8179402768948053,-0.10001179070364094
-1.4461802830808523,-0.05761332559414545,9.752063663837092,-0.8069153863209704,0.8574168502944538,0.030753103587274948,-1.397427388144365,0.19293904387586958,9.67878719922545,-0.7676453826807017,0.7748424105284949,-0.04663148503354022
-1.3051808769006743,0.11556277633499708,9.4896263858996,-0.7456675490781857,0.7908937185639962,0.027866189843233993,-1.2781798564840738,0.2241621004212503,9.750186114447663,-0.729392132905113,0.7296027191655116,0.007870647604014444
-0.947830834351953,0.15557541958065524,9.915250045824264,-0.5659408992879166,0.686957881009304,0.021117954273664488,-1.1597514644737166,0.24819954047230142,9.82017378714966,-0.6874921110607605,0.6823442697095933,0.06329570815558747
-0.9196814573010667,0.1479609687035231,9.904402458989436,-0.6531894664740286,0.6213721631399821,0.10027149431657614,-1.04277607608716,0.2650926180894562,9.88865572684301,-0.6421638734426296,0.6331867309852519,0.11942674551555114
-1.0121351767022218,0.34480797493049653,9.90396693750936,-0.6017651339402854,0.6573936656077465,0.19246475430062557,-0.9278604585742971,0.2748957313073762,9.955544067536271,-0.5936503189373864,0.5822467172289187,0.17602955418862776
-0.8151960812117307,0.16841542471940674,10.142180108800765,-0.524103961354126,0.4731998413162678,0.33572543810236405,-0.8155805286128353,0.2776736534573307,10.020754873203673,-0.5422171208367647,0.5296383612348509,0.23285375358255087
-0.7056092512581502,0.27253798319069555,10.15482071032455,-0.484194469236466,0.5211775372044029,0.23257014583824204,-0.7064780818490841,0.27349911684308476,10.084205483091043,-0.48815079410619616,0.47547410431635007,0.28963414686188427
-0.6119312925144597,0.21118915771374394,10.118633073659376,-0.4487274811091706,0.4731667318323567,0.3152969620268973,-0.6010579969249115,0.26245080110757235,10.145811957880177,-0.43175641008646404,0.4198656844064609,0.3460923529081137
-0.609117196306265,0.44600176980958506,10.306550046325457,-0.32840422146838305,0.43752891513077435,0.42016577728196486,-0.49978589986575406,0.24461176555147868,10.205486683777739,-0.37335498007663565,0.36292529800978285,0.4019387002518695
-0.41064840422192656,0.3240453460292511,10.391455374578939,-0.3049880342686211,0.3440444325763753,0.39977284687202597,-0.4030862713167902,0.2200683514789244,10.263136186804378,-0.31328053867559136,0.3047669064687778,0.4568743669738364
-0.3491151320115774,0.19459817383649858,10.15184152710103,-0.19037271292026275,0.15114590283019658,0.5365614996175521,-0.31134097741688904,0.188909567685396,10.318659204140147,-0.25187696686899774,0.24550765225887036,0.5105937456399047
-0.1273291904663096,0.2877154299587016,10.55724962252996,-0.24198299255125116,0.27230375673503115,0.5418815918818516,-0.22488820488110167,0.15122695973321854,10.371945053523483,-0.18949460335271764,0.18526934690276314,0.5627870074914401
-0.21947043913116226,0.11255837852593042,10.409498721711277,-0.11667850615325716,0.11490054082772849,0.5966251051657321,-0.14402178185844475,0.1071149518744737,10.42287233556784,-0.12648670019793387,0.12417998871158277,0.6131428355139805
-0.15199837875089292,-0.006425465373981289,10.51531624480459,0.037695594544359,0.1513783198521468,0.6691801034627867,-0.06899086804121303,0.05667163951074109,10.471307997585157,-0.06320578541407525,0.06237526602260399,0.6613512918222616
0.13664074647065433,-0.13297313552814993,10.34084692920872,-0.045627926848048894,-0.033400531532766745,0.8556324414782135,-3.3552033999340476e-15,-1.3702313457985571e-15,10.517106781186548,-6.963933428861918e-16,4.694204531387861e-16,0.7071067811865478
-0.010149240156251682,-0.0470228010846485,10.513934229880467,0.1036250038800701,0.02135750751111691,0.7760607217543245,0.06279051952931151,-0.06279051952931614,10.56011106963046,0.0627905195293141,-0.06279051952931433,0.7501110696304596
-0.05858809631956498,-0.2266737171398618,10.605163210413945,0.25669412984133894,-0.0879456773501072,0.8149637737336257,0.11926389700569857,-0.13158208690624404,10.600151144637195,0.12483714057404947,-0.12582935126181002,0.7900763149768497
0.2607902573369695,-0.1427468735590248,10.738374856942746,0.19191299915097165,-0.08449241327147117,0.8150070866523487,0.1693457944071511,-0.20624629900026092,10.637045856189424,0.18582604363915084,-0.18893691710914373,0.8267280650971168
0.05379145152915904,-0.2636621630162658,10.768510558132911,0.3585448729095448,-0.26729530283587266,0.9960684484306812,0.2130029512343141,-0.28664178828087045,10.670603702675296,0.24546127146604202,-0.25192025618810515,0.8598081794856193
0.32762724405327065,-0.21813169690029685,10.606155840307297,0.263807285510478,-0.32443427753676635,0.9270735869950276,0.25024148623700126,-0.37261169030126523,10.700624312578144,0.30346745269676445,-0.31457255610075147,0.8890776306486615
0.26336863286523726,-0.3621837699991441,10.712649275809568,0.38008453322019553,-0.2893957215856325,0.8445166627793884,0.2811048833633079,-0.4639810448414684,10.726900312748812,0.3595921410292506,-0.3766729946209194,0.9143191436394649
0.19305329662713377,-0.3694523913466083,10.837451545112765,0.5285907493640738,-0.4270661073941228,0.8851102318589403,0.3056716681551882,-0.5605542066115139,10.749219562097183,0.4136077190250879,-0.4379869190144313,0.9353396348192928
0.2847567106732931,-0.6052856277772792,10.860673521968987,0.4875782299163441,-0.43683661809739727,0.9126127677183739,0.32405278387668,-0.6621123433415876,10.76736772331183,0.46531282557497533,-0.4982663834093131,0.9519724144774325
0.23747889837650105,-0.7968234904623902,10.69747822361624,0.5570554846358106,-0.5552518549877243,1.0113857262416936,0.33638868105588043,-0.7684110996325615,10.781131138990562,0.5145332772597065,-0.5572510570195867,0.9640791221667876
0.2972643690978482,-0.7881333065398315,10.664374230798483,0.48774093055238665,-0.6951315720037138,1.0647540638321946,0.34284613976376216,-0.8791785039528781,10.790299972402268,0.5611224661624539,-0.6146695077630586,0.9715513683540551
0.4052336503862981,-0.9253709670164755,10.594960434618338,0.6822727205795598,-0.7297141361350671,0.9526803346799776,0.3436148506731578,-0.9941131934899882,10.79467156709912,0.6049612297450829,-0.6702408570773026,0.9743120610783875
0.24289246591783353,-1.070999732212726,10.734477634810133,0.7713054359612463,-0.6931861398624874,1.0189169856511138,0.33890378849224223,-1.1128830270608316,10.794053973890227,0.6459572018216693,-0.7236767927346269,0.9723164015925014
0.3592160009202292,-1.1954946266846336,10.703461967287769,0.6903110465521063,-0.7635817341299859,1.0150284867927915,0.3289374194264525,-1.2351241498549799,10.788269588437261,0.6840436670515427,-0.7746839174108495,0.9655525382639751
0.1323194578432994,-1.4890252742045003,10.661748572256567,0.7325027394456312,-0.8913957978026148,0.9899030758597478,0.31395179250837996,-1.3604405653844305,10.777158838128871,0.7191779543335,-0.8229664019177082,0.954041873195972
0.31510019482328333,-1.5473945498275232,10.716087316602845,0.7726835751197663,-0.8896496731249318,1.0064760991286301,0.2941905725171019,-1.4884042596773974,10.760583853139101,0.7513394166204629,-0.8682289036157611,0.9378390209608738
0.565839493456075,-1.528119369906873,10.701802067308307,0.8256356930028375,-0.987309431528553,0.928280246062413,0.26990107933297114,-1.6185559106024514,10.738432053885163,0.7805270556194897,-0.9101797028373335,0.917031423429021
0.24095019610864046,-1.6799844084926059,10.764409943143908,0.8689149947273698,-0.9638432099233647,0.9318121981885288,0.24133040448497778,-1.7504062014658923,10.710619585672653,0.8067568592564163,-0.9485340034131724,0.8917386288487525
0.04877614621490431,-2.02944828815239,10.61932622077517,0.8091487122846568,-0.8712457250130932,0.7926037765306672,0.2087216799152104,-1.8834377430135376,10.677094531328796,0.8300589273720068,-0.983017337840558,0.8621112470540998
0.08713423493307168,-2.1106173050362664,10.489935026640678,0.8913825629841733,-0.9969569062263263,0.8343454245445175,0.17231057622907808,-2.017107592111123,10.637839834217102,0.8504744666328168,-1.0133690134569724,0.8283295959328515
0.30673827955415084,-2.3371212181710717,10.701207506920765,0.8761951044989246,-1.0543266441057166,0.8482540333946857,0.13232210761903962,-2.1508503391834672,10.592875867289667,0.8680527389010382,-1.039345533357711,0.7906020570962223
0.12548941064455527,-2.1440140232920766,10.538727807475107,0.8082078601153929,-1.012629068667029,0.7262919000530922,0.08896781804014142,-2.2840817205361073,10.542262588795888,0.8828480481942158,-1.0607239248396692,0.7491631610906889
0.08456241793665824,-2.311185253241365,10.694746868947224,0.8683182948525074,-1.1133482415095337,0.7399565213340269,0.04244341799105167,-2.416202696577911,10.486101231888878,0.8949168498292497,-1.077304908936817,0.7042714245377495
0.014161958238548263,-2.5782704035184207,10.29207022635781,0.9337634488294115,-1.064380767221338,0.6769111462578045,-0.007073066546379958,-2.5466039233301836,10.424535483542181,0.9043150614081472,-1.0889158471487115,0.6562069633452762
-0.13244491056413937,-2.6112566259142485,10.350397143176881,0.9535056525402678,-1.0109694183385185,0.5796679569721281,-0.05942258166424452,-2.674670533040677,10.357752117725443,0.9110956490609501,-1.0954134057056608,0.6052689076763168
-0.14836327461780513,-2.933582800495779,10.283882163932887,0.9732359025502626,-1.1357711083830109,0.5881936359908534,-0.1144657305624659,-2.7997871307494973,10.285981058438043,0.9153065539792962,-1.0966858835562856,0.5517726457584072
-0.2132007930098725,-3.0231270601399802,10.145555263160718,0.9845076179998429,-1.0836152430023713,0.5252834172253229,-0.17208283108098543,-2.9213429077118294,10.209494859655669,0.9169890139843031,-1.0926551575418266,0.49604692493214125
-0.14146747071575305,-2.9781943383853906,10.066955370954993,0.9961489843710459,-1.0877520219975447,0.4594463762305687,-0.23217333602277712,-3.0387367699768593,10.128607601153254,0.9161763229671755,-1.0832782067202296,0.43843083962343815
-0.23068637115813304,-3.0941542645269378,10.07656299000046,0.8700698635746679,-1.0552501355464943,0.4072431591322189,-0.29465462251365127,-3.1513823813125015,10.043673211146857,0.9128930578657015,-1.0685481872610607,0.3792707372128686
-0.31518458205748595,-3.283608665588574,10.058171690727777,0.8925957210886095,-1.001204375364978,0.36939833744647954,-0.3594601727050556,-3.2587130240492033,9.955083238356245,0.9071547887833754,-1.048495039453946,0.31891707408122416
-0.35353849732198106,-3.3379310381983167,9.906239301151103,0.8914604084822849,-1.0228391453376806,0.35499141733351836,-0.42653718372144334,-3.3601861891249913,9.863264107046616,0.8989682733419971,-1.023185618839324,0.25772125542060664
-0.41274257696888383,-3.647232990044896,9.72352754615982,0.9617410210280151,-1.0344549502044869,0.2572632948552791,-0.4958436593481894,-3.455287817320805,9.768673898511077,0.8883321218251939,-0.9927233539516815,0.19603249367867054
-0.5364842492770415,-3.4234326017425256,9.762415733400712,0.93712457014606,-0.9278353827183489,0.17111053338553328,-0.5673450490775058,-3.5435361269089785,9.671798710998202,0.8752379055691497,-0.9572474433354123,0.13419472168588772
-0.6815353865640977,-3.7188930359574033,9.464738819642564,0.9107578447960546,-0.9631027968766067,0.11867504029059261,-0.6410105113926396,-3.6244849781085455,9.57314865702886,0.8596716678314,-0.9169316140418933,0.07254359751436998
-0.8050192313982624,-3.624132333966038,9.424495950373645,0.8665137790490304,-0.8965162095667057,0.04494438511236359,-0.7168088872918168,-3.697726741170715,9.473253562212843,0.8416157844422117,-0.8719824724616236,0.011403638821491785
-0.8353621403848285,-3.65635430888289,9.350047712612067,0.8257813004896115,-0.800284570542475,0.03602538797212736,-0.794704476859564,-3.7628946518757136,9.372658432979554,0.8210511113052893,-0.8226374858452671,-0.04891447528459797
-0.7918445075166873,-3.955062879417046,9.053309815500869,0.8635009664677333,-0.7141208177430645,-0.05026611432604307,-0.8746527161204757,-3.819664654963341,9.271918762071726,0.797959347607078,-0.7691626390290366,-0.10811639709507148
-1.096727592523134,-3.676474163440312,9.153719747132335,0.8441908441730639,-0.6745958652462961,-0.11091214080127283,-0.9565958534968728,-3.8677567518208167,9.17159574029136,0.7723255376977906,-0.7118498155645614,-0.16592636107603384
-0.9179042479415123,-4.023635125893016,9.142354551257535,0.864281124442745,-0.6910400109300038,-0.18264737758004365,-1.040458725060918,-3.906935882949162,9.072251440980946,0.7441406312316579,-0.6510139555830773,-0.22208915758163772
-0.9559603878291592,-3.901734440014346,9.064387391100446,0.7048508317166754,-0.5264388049689677,-0.30142550003480345,-1.1261447256145831,-3.937012387745593,8.974444040282151,0.7134040204247041,-0.5869900442791841,-0.27637179726130373
-1.266596210898914,-3.7168485701283656,8.827505386664313,0.6112144882148041,-0.46280303662723865,-0.31212273455975154,-1.213532068681677,-3.9578420935122938,8.87872313159891,0.6801259752414412,-0.5201299849221755,-0.32856483768739714
-1.287022799026762,-3.87289628685131,8.779214132757893,0.6256936703983856,-0.3650615007928151,-0.411732192278556,-1.3024704230100776,-3.96932609199752,8.785625187195285,0.6443299018961566,-0.4507994088869596,-0.3784833485667493
-1.3026264403352523,-3.7400938421681174,8.610516134681362,0.6180852680422295,-0.34628371918981826,-0.3766662849961406,-1.3927780064113096,-3.971410265004483,8.695669213790259,0.6060543570906888,-0.379374472486831,-0.4259674977933866
-1.6627125356467358,-4.028321219635011,8.457524908753692,0.6306205810446879,-0.29215271218917144,-0.4693963903207298,-1.4842392099395978,-3.964084620621392,8.609352642678262,0.5653547596517317,-0.3062386865691923,-0.4708827474836463
-1.6340662482179935,-4.098977459616606,8.563525175019985,0.47298200589318273,-0.240744506253909,-0.5747929146056688,-1.576602816726784,-3.9473824985326758,8.527147488595222,0.5223047523288679,-0.23177982011771617,-0.5131196568769018
-1.5330597078109718,-3.986617824234564,8.37100926076066,0.4787837114563793,-0.01663144355626886,-0.610702910628234,-1.669580870391147,-3.921379696901023,8.449496805521328,0.4769971790400054,-0.15638691372403965,-0.5525932973917328
-1.7603855985600323,-3.8909091543792016,8.353605332335167,0.37259826399918505,0.020533375187225172,-0.5038393840605775,-1.7628482379252206,-3.8861935648197683,8.376811462074926,0.429544656309077,-0.08044743299224763,-0.5892422939456875
-1.9042480455341115,-3.716341947808461,8.377904981962853,0.4489896590898415,0.07740210623764965,-0.7180087447414378,-1.8560429013933544,-3.841982093787682,8.309467254264373,0.38007973149002516,-0.004344585962280434,-0.6230275155751763
-1.8763940470486045,-3.646510459510279,8.292193293364122,0.3205982355527645,0.07007390619807989,-0.6521449149719226,-1.9487670016493794,-3.7889430296007394,8.247802369224653,0.32875463404802163,0.07154517728553858,-0.653930447092958
-2.201003682400898,-3.6561533538169786,8.142738354653485,0.2854861204179576,0.266488444930621,-0.7362368121137683,-2.0405886456117015,-3.7273130130988115,8.192115210208955,0.2757406391136682,0.14685447034261587,-0.6819512816411379
-2.038021476443517,-3.5345776560242403,8.21075258356057,0.40598068792374425,0.23142061715232606,-0.7393942859385226,-2.1310444763942007,-3.6573667449986518,8.142662590509403,0.22122707421136564,0.2212270742113642,-0.7071067811865479
-2.3042354025583482,-3.592543968615454,8.053286225106561,0.16532454018342152,0.3336916718308158,-0.722977082651137,-2.2196429927884727,-3.5794161572516865,8.09965830206549,0.16542001002085424,0.2943198363983734,-0.7294279579402728
-2.079490737714232,-3.6025708131710754,8.027444189912755,0.11786191274052311,0.3441984429662459,-0.7067633864053445,-2.3058685912600505,-3.49380956163801,8.06327206315692,0.10854068387854807,0.36580436659500953,-0.7489576340876701
-2.3654438222552376,-3.6175253434210464,8.099623925370292,0.07644501011042636,0.44076227386227834,-0.9143018672764884,-2.3891862898452323,-3.400930736260754,8.033628848603069,0.050823710185036286,0.4353685333049675,-0.7657479398810901
-2.4281094190613013,-3.29278236934944,7.972835449054099,0.03805858271943029,0.5765796675438679,-0.6818697560634496,-2.469047079266911,-3.3011979027904754,8.010808605112562,-0.007484865198054802,0.5027177680901378,-0.7798578109485077
-2.52264564128589,-3.1556194827484596,7.872468786046644,-0.002355690886499631,0.5695100784873693,-0.71701539075358,-2.5448938324554984,-3.1950625421908017,7.994846353636926,-0.0661296091325751,0.5675761856126135,-0.7913505445717964
-2.5798199799352495,-3.0138153403587804,8.173494992837654,-0.0939688099353655,0.626061912667084,-0.7457616409112124,-2.6161676897693282,-3.083007994590931,7.985732679576895,-0.12484778866203489,0.6296875283938445,-0.8002914717477756
-2.7276391618173834,-3.003085690508124,7.932707075891174,-0.15330995744467216,0.6935535205769395,-0.7903938815675946,-2.682314823939012,-2.965547790181529,7.983414610275776,-0.18337145080281786,0.6888159452698246,-0.8067457972116131
-2.8431597228943,-2.9475564837830555,8.131336169746993,-0.16613797808094066,0.7375883445546836,-0.8415154270784168,-2.7427934765547293,-2.8432236625792,7.987796877246609,-0.24142945001140464,0.7447466119959042,-0.810776653503751
-2.5816864083469127,-2.708615899621269,7.773203085493272,-0.3654300943938102,0.8457443314644443,-0.8006250051338235,-2.7970811472629054,-2.7166032039533663,7.99874355789074,-0.2987493864592708,0.7972862014726252,-0.812443407888977
-2.9119178426429424,-2.471541563418734,8.060903770042911,-0.2918582201744071,0.90242799245519,-0.7009439740777877,-2.8446818082465755,-2.5862771321000517,8.01608008799669,-0.3550594270717739,0.8462632097641967,-0.8118002528235359
-3.0806936436432086,-2.5449093644924274,8.030486669199217,-0.36458918610584146,0.9249027662378395,-0.7917450746967298,-2.885133010528112,-2.4528561531834705,8.039595632036061,-0.41008999064947455,0.8915281426112881,-0.8088951020682408
-2.8494169651948735,-2.4241960105496343,8.176045890425456,-0.4441180260861984,1.0220579019070968,-0.7197338205710383,-2.9180127456076654,-2.3169674195029666,8.069045793234935,-0.46357528779275475,0.9329535656488155,-0.8037688058160375
-2.9869455900166817,-2.338078823737277,8.08592770113902,-0.5354885759568719,0.9545072626184904,-0.8034563292798509,-2.942945926309273,-2.1792505987073287,8.10415563969334,-0.5152547153216862,0.9704340201690249,-0.7964546896731439
-2.766546690232095,-2.0435306841125547,8.034171226372933,-0.6399014366364023,0.9852819129406124,-0.7525814621843293,-2.9596103547141803,-2.0403535885961723,8.144623016610153,-0.5648741130027662,1.003885805150729,-0.7869784142960257
-3.0076496322851605,-1.907915281332723,8.248861364940195,-0.5399665526222911,1.1715073131001075,-0.8008651802589972,-2.9677420528430747,-1.9009279291794379,8.190122108158072,-0.61218689731076,1.033246625518601,-0.7753581451818052
-3.208275610319401,-1.6824158342649673,8.314459502331015,-0.6608285869132352,1.036603389001281,-0.7279812477269836,-2.9671398432728795,-1.7616239801460516,8.240307206000574,-0.6569550923982532,1.0584751062908133,-0.7616050157158418
-2.8827566466772665,-1.6579275668141036,8.37361315658784,-0.7060527787019458,1.096003962980278,-0.666679171829904,-2.9576690819350357,-1.6230859464783134,8.294816635139357,-0.6989502822372075,1.0795501724806864,-0.7457238612116273
-2.901815990116889,-1.529525039772211,8.262060582007965,-0.7068125366952758,1.0576406604415782,-0.7329244210105854,-2.9392644635647516,-1.485946846861216,8.353276782035405,-0.7379545099470599,1.096470295371559,-0.7277141973857504
-2.758338557047202,-1.3988314491120328,8.510869823096192,-0.7355890232380435,1.1757761299070086,-0.715425793750006,-2.9119318411152904,-1.3508235281114551,8.415306165068928,-0.7737611506298627,1.109252607085095,-0.7075714134882475
-2.695654236554712,-1.474799071367607,8.522510161407933,-0.8006053063117909,1.1681580760821542,-0.7842971462297399,-2.8757490232384564,-1.2183118335741132,8.480519483687928,-0.806175782673025,1.1179318871839787,-0.6852881480996615
-2.796079019281467,-0.8920904167226128,8.612842056390472,-0.7530241833832132,1.2017008882762017,-0.7021925276737224,-2.8308655378718846,-1.0889820339760405,8.548531580303125,-0.8350170796003524,1.122559427332386,-0.6608558143156442
-2.7918404252524334,-0.8127966806760654,8.396335169322164,-0.8066599672150451,1.1323378215543065,-0.5649104344656749,-2.777501374205772,-0.9633746254587201,8.618961248331313,-0.8601177403552985,1.1232017826981844,-0.634266240544897
-2.6087709791678457,-0.8261731326298118,8.73158848306836,-0.8590119681040893,1.2262900280508109,-0.6230810442130249,-2.715944738940661,-0.841996591530038,8.691434820919037,-0.8813254706316557,1.119939421713048,-0.6055133933077602
-2.722040668023565,-0.783696044069552,8.85840590891903,-0.8344647995076564,1.2053419042843672,-0.5188609717990975,-2.6465488849311662,-0.72531821377629,8.765589477869817,-0.8985040218000302,1.1128652888866357,-0.5745951490965308
-2.6345867405300885,-0.43796127225689274,8.757865515653608,-0.973194530171515,1.0835707199767395,-0.44829282204743204,-2.5697280902440216,-0.6137705008605505,8.84107621314547,-0.9115342874021382,1.1020832984625106,-0.5415150834052933
-2.519725815861737,-0.5264207403134221,8.917642996817525,-0.9732599500779556,1.0819442059707949,-0.47058437620877763,-2.485952882659997,-0.5077432872656353,8.917562411927845,-0.9203154503915234,1.0877067796645368,-0.5062842463290687
-2.2839350696924834,-0.3586587626881645,9.022320522256104,-0.9454605306367359,1.103773376663733,-0.40565168123352835,-2.395744618181919,-0.4075840332119931,8.99473399444201,-0.924766167573062,1.0698568969710882,-0.4689228955621598
-2.125650940310887,-0.21306705164533765,9.001916664080703,-0.9335448225908922,1.055316700389309,-0.41467666440614304,-2.299669531810998,-0.3135973360675769,9.072297093314361,-0.9248257713033106,1.0486610711350268,-0.42946215910773466
-2.2029393577613776,-0.16524413335176072,9.466699495044312,-0.931712178280701,0.9729320374753727,-0.43485704940685144,-2.1983323845427956,-0.22604514227465133,9.149979241863944,-0.9204554627042163,1.024251428416705,-0.38794560148691576
-2.2116923892598037,-0.049667084131028674,9.3170923951182,-0.9432252878908384,0.918484747087147,-0.4127786851231978,-2.092369832222865,-0.1451476282353814,9.227530062052397,-0.9116394656306197,0.9967633066090125,-0.34443066867251515
-2.00381383159788,0.03484377100785695,9.46220749734163,-0.82714785507999,0.9635937466581015,-0.4057954829662354,-1.9824436397802845,-0.07108469954558605,9.304721452466518,-0.8983861066013681,0.9663338468232326,-0.29898998836407514
-1.9280893794046108,0.10513168231080702,9.27769689610634,-0.8469579166445933,0.9439844596545129,-0.18129745051647694,-1.8692338587747308,-0.003998041158207788,9.381347288287829,-0.8807287830041364,0.933100699612341,-0.25171250358388847
-1.7969727291850297,0.17197313021583008,9.52551674379019,-0.8500665476182865,0.93476508204485,-0.19344910256368256,-1.7534320776313184,0.056006362931257825,9.457222656335341,-0.8587267802285514,0.8972008728014944,-0.2027044189460261
-1.718221866585984,0.07514927769155852,9.615410096792704,-0.8174526822318284,0.8825044526758064,-0.10462315266864218,-1.6357348429771992,0.10885533264400771,9.532182658599167,-0.8324658980477594,0.8587697463687307,-0.1520899403860777
-1.6273194677688914,0.14468833184686572,9.648611513334343,-0.7489483600646538,0.8357580378343796,-0.03795903313466559,-1.516837337775934,0.154505316877819,9.606080826906187,-0.8020588475956996,0.8179402768948041,-0.1000117907036378
-1.3691452408655507,0.21129708903424188,9.629187892555086,-0.755799100876481,0.7657787810647768,-0.006950654160978599,-1.397427388144366,0.1929390438758729,9.678787199225447,-0.7676453826807039,0.7748424105284974,-0.046631485033543946
-1.4002211336328614,0.32131558454608666,9.70939735894487,-0.7445634699048147,0.6696891200261599,-0.002189240799767258,-1.2781798564840723,0.22416210042125173,9.750186114447663,-0.7293921329051132,0.7296027191655118,0.007870647604014125
-1.2961002770035788,0.20323153925262305,9.813703409342505,-0.7026634465197109,0.8381634446470952,0.15951718242914806,-1.159751464473715,0.24819954047230264,9.82017378714966,-0.6874921110607607,0.6823442697095934,0.06329570815558713
-1.1643851909818914,0.16667938929302958,9.857753939884487,-0.5838621710563873,0.6758980116471712,0.08818150339814682,-1.0427760760871583,0.26509261808945755,9.88865572684301,-0.6421638734426298,0.633186730985252,0.11942674551555083
-0.9142375846125361,0.27414678880099913,9.928264613221131,-0.4954197982697807,0.6275807818498301,0.1609051003863271,-0.9278604585742956,0.2748957313073776,9.955544067536271,-0.5936503189373865,0.582246717228919,0.17602955418862745
-0.7595406107284356,0.2500503663460599,10.01777269653254,-0.5062532058233808,0.6256374273214584,0.24169823434450854,-0.8155805286128351,0.27767365345733364,10.020754873203673,-0.5422171208367664,0.5296383612348525,0.23285375358255067
-0.7605422527297034,0.26772205254292797,10.108757409101434,-0.37513653267323815,0.4229650990354552,0.3589286286994664,-0.7064780818490823,0.27349911684308637,10.084205483091043,-0.4881507941061964,0.4754741043163503,0.28963414686188393
-0.5104898422403136,0.17150225417156054,10.246718736208118,-0.36826708228773364,0.410584106316314,0.39695110770969133,-0.6010579969249066,0.2624508011075708,10.14581195788018,-0.43175641008646104,0.4198656844064579,0.34609235290811674
-0.6691262060103675,0.2716886668586494,10.069153120361232,-0.42128307688030797,0.3195703542460886,0.4624098862008589,-0.4997858998657542,0.2446117655514817,10.205486683777737,-0.3733549800766374,0.36292529800978474,0.4019387002518693
-0.4948513742335243,0.1717179484723692,10.419746240423644,-0.2575197893116208,0.3410521691143408,0.4519554476887528,-0.40308627131678687,0.22006835147892426,10.263136186804381,-0.3132805386755898,0.30476690646877636,0.4568743669738393
-0.16367427522712313,0.3225318345813844,10.227377530919547,-0.21712976635612546,0.26459626665132824,0.5075686878856298,-0.3113409774168858,0.1889095676853957,10.31865920414015,-0.25187696686899613,0.24550765225886892,0.5105937456399074
-0.16182247654194548,0.05007096425725624,10.520518247410719,-0.10528652250782183,0.27163223045938234,0.6257548753606884,-0.2248882048810986,0.15122695973321812,10.371945053523485,-0.18949460335271603,0.1852693469027617,0.5627870074914427
-0.22015803276931134,0.12464925977938013,10.624624104777,-0.12676161455519744,0.14176556372507243,0.5409024546375613,-0.14402178185844358,0.10711495187447491,10.42287233556784,-0.126486700197934,0.12417998871158309,0.6131428355139803
0.007558397924102109,0.03446921158774821,10.628444947201958,-0.03800796141934829,0.08697513532557194,0.5645278808726966,-0.06899086804121186,0.05667163951074232,10.471307997585157,-0.06320578541407541,0.0623752660226043,0.6613512918222614
-0.010398432478555188,-0.013831151177904856,10.702780304176377,0.013945025326458388,0.04567209891816082,0.6753031170666204,-2.167460419625965e-15,-1.0956175966517926e-16,10.517106781186548,-8.380553911020371e-16,7.875645736148878e-16,0.7071067811865476
-0.03739207238363172,-0.17717717609719155,10.63532336904087,0.058119134520915786,0.03686148788285902,0.609873896202759,0.06279051952931448,-0.06279051952931661,10.560111069630462,0.06279051952931573,-0.06279051952931577,0.7501110696304618
0.05680824902131969,-0.11687493493627202,10.618140515114145,0.16186978093492219,-0.11410346996842018,0.8330093484033025,0.11926389700569964,-0.13158208690624287,10.600151144637195,0.12483714057404936,-0.1258293512618097,0.7900763149768495
0.022686897055370414,-0.18828074173132633,10.703721663913363,0.10508683906432174,-0.1471179383153523,0.8470490952944886,0.16934579440715394,-0.20624629900026148,10.637045856189426,0.18582604363915248,-0.18893691710914517,0.8267280650971186
0.2677265892476853,-0.20566544314065335,10.539969260149064,0.2438838810972378,-0.1807660437610111,0.9584474191971134,0.21300295123431334,-0.28664178828086767,10.670603702675296,0.2454612714660402,-0.25192025618810315,0.8598081794856192
0.2325371380151764,-0.2579397081222716,10.853699072485984,0.2895684072133643,-0.3012566774658743,1.0025904885431904,0.25024148623700576,-0.3726116903012674,10.700624312578146,0.3034674526967677,-0.3145725561007545,0.889077630648663
0.21819180429318258,-0.5411208391427603,10.591447502520698,0.34849400709035694,-0.259853825703643,0.8842888409895255,0.2811048833633104,-0.4639810448414675,10.726900312748814,0.35959214102925213,-0.3766729946209192,0.9143191436394662
0.10287212787841768,-0.6414522790665725,10.745965526290307,0.41191581170446906,-0.41227526099981987,0.9717689775217742,0.30567166815519065,-0.5605542066115163,10.749219562097185,0.4136077190250894,-0.4379869190144343,0.9353396348192939
0.35455081387775195,-0.6602526513627981,10.914475382465396,0.49978528261609784,-0.544436375786195,1.0150843726434844,0.3240527838766806,-0.662112343341587,10.76736772331183,0.4653128255749751,-0.49826638340931284,0.9519724144774324
0.3824269565350358,-0.7010938038504434,10.714063534984568,0.46930192679403904,-0.5976646607133237,0.8933489210417168,0.3363886810558825,-0.7684110996325639,10.781131138990563,0.5145332772597078,-0.5572510570195893,0.9640791221667883
0.40304776138519965,-0.9349250479788135,10.871467713703563,0.5567528223986158,-0.4950777571490461,0.942927887057784,0.3428461397637624,-0.8791785039528776,10.790299972402268,0.5611224661624536,-0.6146695077630584,0.9715513683540551
0.5312095413194229,-0.924192222915172,10.643285333683055,0.5783845693102013,-0.746949050200708,0.95563794023554,0.34361485067315817,-0.9941131934899878,10.79467156709912,0.6049612297450827,-0.6702408570773024,0.9743120610783875
0.3947610897849612,-1.2140777889708148,10.636948842245117,0.6045609428520269,-0.640550921931574,0.9355069544105336,0.3389037884922413,-1.1128830270608314,10.794053973890227,0.6459572018216678,-0.7236767927346267,0.9723164015925014
0.4323259492911588,-1.2819904012814671,10.77416083425295,0.6359643669490171,-0.8371288825647833,0.9297135061038752,0.3289374194264528,-1.2351241498549794,10.788269588437261,0.6840436670515425,-0.7746839174108493,0.9655525382639751
0.1771016428480173,-1.3148526538461802,10.784435459522822,0.7634954925075377,-0.8064582488367692,0.98002050987714,0.31395179250838157,-1.3604405653844323,10.777158838128871,0.719177954333501,-0.8229664019177102,0.9540418731959716
0.36897064270280266,-1.3210555983971148,10.921096740303708,0.8102237176364151,-0.8773037587132553,0.9462817428342256,0.294190572517101,-1.4884042596773948,10.760583853139101,0.7513394166204617,-0.8682289036157588,0.9378390209608739
0.34125620522894595,-1.3750961812136968,10.724292675645009,0.7906353308578759,-0.7899898512773703,0.92086340740841,0.2699010793329716,-1.6185559106024505,10.738432053885163,0.7805270556194897,-0.9101797028373333,0.9170314234290212
0.30491275828345166,-1.953842866289293,10.688659669123496,0.800935820476903,-0.8874792193297315,0.9755294350339965,0.2413304044849789,-1.7504062014658917,10.710619585672653,0.8067568592564172,-0.9485340034131722,0.8917386288487517
0.24260772540677641,-1.8994163671754674,10.648081053951309,0.7999812831541101,-0.9872098309342419,0.9250959331722544,0.20872167991521073,-1.8834377430135372,10.677094531328796,0.8300589273720067,-0.9830173378405579,0.8621112470540999
0.09226072246010505,-2.028093742775728,10.48103034571989,0.7287787388607831,-0.9470010932966435,0.8669436286975089,0.17231057622907842,-2.0171075921111226,10.637839834217102,0.8504744666328168,-1.0133690134569724,0.8283295959328516
0.1285665541188272,-2.1786816680930814,10.72011702176202,0.8977074019675473,-0.9006358615933632,0.832701905500139,0.13232210761903962,-2.1508503391834655,10.592875867289667,0.8680527389010375,-1.0393455333577102,0.7906020570962227
0.234483124780249,-2.289531405042881,10.449840374082983,0.9342146864203845,-1.0237307342177335,0.6948463869985098,0.08896781804014198,-2.284081720536107,10.542262588795888,0.8828480481942159,-1.0607239248396692,0.7491631610906891
-0.06761282837128443,-2.2600515278225735,10.640692121182184,0.95482650664669,-1.0575399985243723,0.6927201921535461,0.04244341799105256,-2.416202696577911,10.486101231888876,0.8949168498292501,-1.0773049089368167,0.7042714245377477
0.08668484229151999,-2.525406867813297,10.633882882788104,0.9426483630334972,-1.0646341768283585,0.643744909798159,-0.007073066546379514,-2.5466039233301823,10.424535483542181,0.9043150614081468,-1.0889158471487113,0.6562069633452764
-0.007612228035938709,-2.5870649571572844,10.457071649298387,0.8815279312436554,-1.037442853204723,0.6232720618077957,-0.059422581664243856,-2.674670533040677,10.357752117725443,0.9110956490609501,-1.0954134057056608,0.6052689076763169
-0.2119262648589828,-2.7569707945642503,10.360710734922653,0.9718412362145623,-1.0746023822241422,0.5196731490087894,-0.11446573056246545,-2.799787130749497,10.285981058438042,0.9153065539792965,-1.0966858835562852,0.5517726457584049
-0.17379710664685605,-3.048837471001358,10.275739646014221,0.9354854849667472,-0.9800107603229933,0.5430047591323934,-0.17208283108098477,-2.9213429077118285,10.209494859655669,0.9169890139843031,-1.0926551575418266,0.49604692493214153
-0.39803843209927336,-2.893681512591675,10.251629443601889,0.9320803035596297,-1.0898807172699259,0.46615928574101734,-0.2321733360227769,-3.0387367699768584,10.12860760115325,0.9161763229671758,-1.0832782067202287,0.43843083962343554
-0.3883778980275192,-3.221128373245659,10.192113596091223,0.9485615495526266,-1.0893401715395428,0.31668961500931403,-0.29465462251365093,-3.1513823813125015,10.043673211146857,0.9128930578657017,-1.0685481872610607,0.37927073721286886
-0.446591474357198,-3.300075065112759,9.905916013219054,0.9665952135640709,-0.9935237179657899,0.46903996577928847,-0.3594601727050549,-3.2587130240492037,9.955083238356247,0.9071547887833754,-1.0484950394539463,0.3189170740812244
-0.43160769742115873,-3.186029556281246,9.76040915306812,0.7786880473791966,-0.9696582703535945,0.27093360881116924,-0.426537183721442,-3.360186189124991,9.863264107046616,0.8989682733419978,-1.0231856188393242,0.2577212554206069
-0.3732449567647424,-3.580345385530409,9.797470594198606,0.9903141333518581,-1.065642472158771,0.2061967397967606,-0.49584365934818875,-3.455287817320805,9.768673898511077,0.8883321218251939,-0.9927233539516817,0.1960324936786708
-0.5408786391082774,-3.547551364743707,9.717324900591656,0.898201561592657,-1.0400675328556264,0.16291014575914461,-0.5673450490775067,-3.5435361269089767,9.671798710998198,0.875237905569149,-0.9572474433354101,0.134194721685885
-0.47600875224317624,-3.809018183626796,9.585890549853781,0.8727910610834411,-0.8594682002533099,0.09610148362776999,-0.6410105113926382,-3.624484978108547,9.57314865702886,0.8596716678314011,-0.916931614041895,0.07254359751436981
-0.7511698576656448,-3.65566947538218,9.565222358638943,0.7869970640163058,-0.8638415902349004,-0.026586753871082322,-0.7168088872918158,-3.6977267411707135,9.473253562212843,0.8416157844422119,-0.8719824724616237,0.011403638821492118
-0.90216256245261,-3.669442356322408,9.183312854755169,0.843679276352571,-0.7190932864363555,-0.02905927815300271,-0.7947044768595642,-3.762894651875713,9.37265843297955,0.8210511113052893,-0.8226374858452663,-0.04891447528460116
-1.173263437548688,-3.9170250441515715,9.098705142946633,0.777292839837493,-0.8190587732398462,-0.07479719871105026,-0.8746527161204747,-3.8196646549633404,9.271918762071726,0.7979593476070792,-0.7691626390290367,-0.10811639709507118
-1.0119286467507695,-3.7493739323955513,9.321127093162376,0.7898802078920965,-0.6315815373217547,-0.19264879958769468,-0.956595853496873,-3.8677567518208154,9.17159574029136,0.7723255376977907,-0.7118498155645615,-0.1659263610760335
-1.1092637198678077,-3.961222177597098,9.118891083564325,0.780779759553382,-0.7060543847780474,-0.2884256233271008,-1.0404587250609194,-3.906935882949159,9.072251440980942,0.7441406312316573,-0.651013955583074,-0.22208915758164022
-1.0542450369765604,-3.931561375550387,8.990428796124078,0.7507635917317349,-0.6146730572690483,-0.31968445563800163,-1.1261447256145831,-3.9370123877455923,8.974444040282151,0.7134040204247041,-0.5869900442791846,-0.2763717972613035
-1.2483072450575343,-3.8765365826424376,8.972172984138664,0.6678999972398715,-0.4889357291280729,-0.26613753346135033,-1.2135320686816773,-3.957842093512293,8.87872313159891,0.6801259752414412,-0.5201299849221759,-0.3285648376873969
-1.2887912358730667,-3.943729190339707,8.79155590754701,0.702578108301203,-0.49748440456364973,-0.43681095191808317,-1.3024704230100759,-3.96932609199752,8.785625187195286,0.6443299018961581,-0.4507994088869599,-0.37848334856674903
-1.2305500534884728,-3.9221161949064376,8.869360135520436,0.5300996786899109,-0.45438005323906666,-0.4502451633372526,-1.392778006411309,-3.971410265004483,8.695669213790259,0.6060543570906888,-0.3793744724868313,-0.4259674977933865
-1.3631615539595003,-3.863485711381988,8.416554147871915,0.5546523169494763,-0.360043108635537,-0.3676129992466027,-1.484239209939599,-3.9640846206213887,8.609352642678259,0.5653547596517309,-0.3062386865691886,-0.4708827474836485
-1.677443776924863,-3.720496810574647,8.500928504082804,0.4900152425808519,-0.20011425019618007,-0.45006123640718065,-1.5766028167267812,-3.947382498532679,8.527147488595222,0.52230475232887,-0.23177982011771964,-0.5131196568769026
-1.5364899558220293,-3.870953248845975,8.276115671428956,0.4858277125483599,-0.19819239602241062,-0.4892914862335979,-1.669580870391146,-3.9213796969010226,8.449496805521328,0.4769971790400055,-0.15638691372403996,-0.5525932973917325
-1.8918486325850807,-3.96539614315101,8.554811074904112,0.4271394024323179,-0.1015287016139761,-0.5335612330973374,-1.7628482379252217,-3.8861935648197674,8.376811462074922,0.42954465630907646,-0.08044743299224708,-0.5892422939456905
-1.8026969311067493,-3.6904386434713747,8.189307877630423,0.43642732060309064,0.040275759555018165,-0.5739731563528556,-1.8560429013933533,-3.841982093787681,8.309467254264373,0.3800797314900254,-0.004344585962280767,-0.6230275155751761
-1.8277617246753892,-3.774106661111435,8.094168670171461,0.3361666794725188,0.09969948392200936,-0.6971595987528707,-1.9487670016493792,-3.78894302960074,8.247802369224653,0.32875463404802185,0.07154517728553823,-0.6539304470929579
-1.9727069777576245,-3.667603768054464,8.092058443844142,0.25316625413347027,0.16045288028807453,-0.6223954076793881,-2.040588645611699,-3.7273130130988146,8.192115210208957,0.2757406391136705,0.1468544703426122,-0.681951281641139
-1.9947920599676285,-3.6257208510891927,8.195976618477875,0.359060924589965,0.20726802586574442,-0.6562870151941194,-2.1310444763942,-3.657366744998652,8.142662590509403,0.22122707421136592,0.22122707421136392,-0.7071067811865479
-2.1392325913740318,-3.6215114607153183,8.323039307237613,0.06580723641112456,0.37993264818375044,-0.772377199680325,-2.219642992788474,-3.579416157251686,8.099658302065489,0.16542001002085344,0.29431983639837384,-0.729427957940275
-2.283635763202922,-3.4704297570635694,8.169038400562858,0.0438636173331665,0.35278453539210564,-0.6651534498534896,-2.3058685912600505,-3.4938095616380114,8.06327206315692,0.1085406838785484,0.36580436659500926,-0.7489576340876704
-2.1906730751494496,-3.4410689021341927,8.061548386253095,-0.004588475947497284,0.3700582403621522,-0.8149055464540386,-2.389186289845234,-3.4009307362607544,8.033628848603067,0.050823710185035426,0.43536853330496794,-0.7657479398810921
-2.372764299140576,-3.300010325999786,7.9706626228611235,0.029135656302017407,0.5251618242194294,-0.8034391154708054,-2.469047079266909,-3.301197902790476,8.010808605112562,-0.007484865198052804,0.5027177680901376,-0.7798578109485078
-2.637888633893704,-3.302590669211761,7.93662468780357,-0.09532057957361557,0.5105836767193483,-0.7644202255050178,-2.544893832455499,-3.1950625421908017,7.994846353636927,-0.06612960913257482,0.5675761856126131,-0.7913505445717963
-2.728416101875129,-3.0194273059983,8.004973917374745,-0.09244464361683136,0.7132058127784905,-0.7482817737379618,-2.6161676897693282,-3.0830079945909312,7.985732679576895,-0.12484778866203461,0.6296875283938442,-0.8002914717477756
-2.67194166036003,-2.92006075441814,7.941196298049097,-0.18178295069663833,0.6368155253102805,-0.7412122129768145,-2.6823148239390155,-2.965547790181526,7.9834146102757755,-0.18337145080282075,0.6888159452698277,-0.8067457972116132
-2.771685626861925,-2.9730616943250303,7.8669553881007745,-0.25057175730437087,0.7393214766346251,-0.846465447709871,-2.7427934765547297,-2.8432236625792013,7.987796877246609,-0.2414294500114043,0.744746611995904,-0.8107766535037513
-2.718287397935331,-2.617142582491337,8.20817147013811,-0.16930748853700164,0.9175236435215255,-0.9179151879104721,-2.7970811472629054,-2.7166032039533663,7.99874355789074,-0.29874938645927057,0.797286201472625,-0.8124434078889771
-2.830253529008934,-2.7715824205694006,8.027078223496623,-0.3974708880492092,0.7575223436627216,-0.8279757921231248,-2.844681808246576,-2.5862771321000526,8.01608008799669,-0.3550594270717736,0.8462632097641964,-0.811800252823536
-2.8250665829588373,-2.5953030111920796,8.04713020838763,-0.3125186172547266,0.967274979551924,-0.7476643666151774,-2.8851330105281123,-2.452856153183471,8.039595632036061,-0.4100899906494744,0.8915281426112879,-0.8088951020682409
-3.124159819382832,-2.486118191897683,7.974573510141682,-0.4432955920386898,0.9033997125192635,-0.8212932177147394,-2.9180127456076645,-2.3169674195029675,8.069045793234935,-0.4635752877927546,0.9329535656488153,-0.8037688058160376
-3.0485655518771466,-2.180312974666527,8.151102663572825,-0.5861221377517861,0.9805187512569785,-0.7712431847939097,-2.9429459263092728,-2.1792505987073287,8.10415563969334,-0.515254715321686,0.9704340201690247,-0.7964546896731439
-2.8990035154147287,-2.0326478681407565,8.223165500075389,-0.49151239552238,0.993175086382124,-0.7032213558758857,-2.9596103547141808,-2.040353588596173,8.144623016610153,-0.5648741130027661,1.0038858051507287,-0.7869784142960257
-3.011860053195103,-1.8947160999003356,8.166137312419803,-0.5998013128489069,0.9266668573599222,-0.7170826288062898,-2.9677420528430742,-1.900927929179438,8.190122108158072,-0.6121868973107598,1.033246625518601,-0.7753581451818052
-2.945275244571101,-1.5838103900672664,8.311864484902555,-0.6790997811605932,1.0206274993208522,-0.7067478066189172,-2.9671398432728795,-1.7616239801460516,8.240307206000574,-0.656955092398253,1.0584751062908133,-0.7616050157158419
-3.008307242272165,-1.5947830517045234,8.207884423486586,-0.797785882500533,1.1991586243354866,-0.7466474441725138,-2.9576690819350357,-1.6230859464783138,8.294816635139357,-0.6989502822372073,1.0795501724806864,-0.7457238612116274
-2.9736138720689356,-1.6645379185943514,8.559342755394578,-0.7447449580246971,1.069916974563932,-0.7372025407626194,-2.9392644635647516,-1.4859468468612154,8.353276782035405,-0.7379545099470597,1.0964702953715588,-0.7277141973857505
-2.8333222755109375,-1.5321877974148064,8.259674006762808,-0.8581782253709128,1.110017403471497,-0.7363453039183048,-2.911931841115292,-1.3508235281114562,8.415306165068927,-0.7737611506298625,1.109252607085095,-0.7075714134882476
-2.8221064624473597,-1.1990203026193875,8.33823153904573,-0.8177173268467809,1.2125587648302611,-0.6535760562377047,-2.8757490232384564,-1.2183118335741132,8.480519483687926,-0.8061757826730249,1.1179318871839785,-0.6852881480996618
-2.9168481203169216,-1.1854872966143368,8.547098794320542,-0.8181658755798902,1.1003349134091303,-0.6189301011043089,-2.8308655378718846,-1.0889820339760412,8.548531580303125,-0.8350170796003523,1.122559427332386,-0.6608558143156443
-2.7462116099529457,-0.801890368139297,8.560321664706427,-0.892731254387479,1.1874715493451842,-0.6422528736865644,-2.777501374205772,-0.9633746254587201,8.618961248331313,-0.8601177403552984,1.1232017826981844,-0.6342662405448972
-2.800878325983807,-0.8303210266512663,8.527212508401892,-0.8822583509743168,1.1040929146019722,-0.5195484532500586,-2.715944738940661,-0.8419965915300385,8.691434820919035,-0.8813254706316553,1.1199394217130483,-0.6055133933077604
-2.6640224825916747,-0.5936573462151239,8.70105736772634,-0.9086557229873592,1.1198607121397954,-0.5237571964618966,-2.6465488849311667,-0.72531821377629,8.765589477869815,-0.8985040218000301,1.112865288886636,-0.5745951490965309
-2.270557010955039,-0.5816149361017983,8.835755990519113,-0.8888445768829075,1.119457169724552,-0.5050659892024814,-2.5697280902440225,-0.6137705008605505,8.84107621314547,-0.911534287402138,1.1020832984625106,-0.5415150834052935
-2.662888319307169,-0.3877429160346223,8.817899258835812,-0.9569711933072507,1.064178399292004,-0.5227472462659486,-2.4859528826599977,-0.5077432872656356,8.917562411927845,-0.9203154503915234,1.0877067796645368,-0.5062842463290687
-2.4890955261133003,-0.4285010119756519,8.856433774360184,-0.8814946223333779,1.0349189123383926,-0.42232490368968,-2.3957446181819195,-0.40758403321199344,8.99473399444201,-0.9247661675730618,1.0698568969710882,-0.46892289556215994
-2.244748965284776,-0.3931299538761993,9.022642530608993,-0.910920644186648,1.1441233339228405,-0.3776622151413954,-2.2996695318109985,-0.31359733606757734,9.072297093314361,-0.9248257713033105,1.0486610711350268,-0.4294621591077349
-2.32238849029356,-0.18001097082198997,9.17307908523517,-0.9659662274040668,1.082635339469175,-0.3568914994007466,-2.1983323845427964,-0.22604514227465122,9.149979241863942,-0.9204554627042163,1.024251428416705,-0.3879456014869159
-2.069376960236423,-0.07093868065344322,9.381013844486016,-0.8423581270457694,0.9828689046416085,-0.2868804370508064,-2.0923698322228654,-0.1451476282353814,9.227530062052397,-0.9116394656306197,0.9967633066090125,-0.34443066867251537
-1.8578497543637318,-0.14021337508650314,9.273520481467976,-0.7906918104371402,1.1217327883399706,-0.3177647775181085,-1.9824436397802851,-0.07108469954558616,9.304721452466518,-0.8983861066013681,0.9663338468232328,-0.29898998836407537
-1.727392396887195,0.042192627262051946,9.356960123037462,-0.9602160563602874,0.8943599579588282,-0.2302993060257129,-1.86923385877473,-0.003998041158209009,9.381347288287833,-0.8807287830041352,0.9331006996123393,-0.2517125035838856
-1.7517306578965575,-0.06735298123464695,9.315527519542824,-0.8809848744201938,0.8845114766378834,-0.19800490256417094,-1.7534320776313188,0.056006362931257825,9.457222656335341,-0.8587267802285515,0.8972008728014945,-0.20270441894602637
-1.7160770603139959,0.12886972833813867,9.677202155968816,-0.8291365952287314,0.9355991298758272,-0.14889632077892748,-1.6357348429771996,0.10885533264400782,9.532182658599167,-0.8324658980477595,0.8587697463687308,-0.15208994038607793
-1.3787593709786534,0.12106508354768984,9.664994359683245,-0.7501916795491493,0.8981230568626433,-0.06376597712757183,-1.5168373377759345,0.1545053168778191,9.606080826906187,-0.8020588475956996,0.8179402768948042,-0.10001179070363805
-1.2570958022754932,0.29156196924513517,9.641157779884681,-0.6761379288572485,0.8513902160309588,-0.02509455464859084,-1.3974273881443664,0.19293904387587313,9.678787199225447,-0.767645382680704,0.7748424105284977,-0.04663148503354418
-1.2529127648161018,0.16503203752993315,9.588250498071273,-0.7419967954023173,0.677897372548372,-0.01604768523449208,-1.2781798564840725,0.22416210042125195,9.750186114447663,-0.7293921329051132,0.729602719165512,0.007870647604013896
-1.0460048554525427,0.3105529870242617,9.98692351309624,-0.658152969479293,0.704777224201743,-0.005078806457276638,-1.1597514644737155,0.24819954047230286,9.82017378714966,-0.6874921110607608,0.6823442697095936,0.06329570815558691
-1.059223929253368,0.21910866911983456,9.798409196690828,-0.645229837046762,0.6820977171122368,0.11703492302775836,-1.042776076087159,0.2650926180894578,9.88865572684301,-0.64216387344263,0.6331867309852522,0.11942674551555058
-1.0462181971864568,0.20780653282573236,9.94999344391396,-0.5707030682142209,0.6344543233532829,0.1832302878427343,-0.9278604585742961,0.2748957313073778,9.955544067536271,-0.5936503189373867,0.5822467172289192,0.1760295541886272
-1.083777063040684,0.1620355272024549,9.85523896285086,-0.49246250975798717,0.5086054035610711,0.2993798553420938,-0.8155805286128357,0.2776736534573339,10.020754873203671,-0.5422171208367667,0.5296383612348529,0.23285375358255042
-0.7808548291699201,0.2806063651386752,10.119556223750362,-0.5309776159381457,0.5556255986337256,0.3714069962750881,-0.7064780818490829,0.2734991168430866,10.084205483091043,-0.4881507941061966,0.4754741043163505,0.28963414686188366
-0.6313412139858569,0.11477458290385403,10.24297171668138,-0.4381433651091693,0.48719037674089327,0.29562412852945413,-0.601057996924907,0.26245080110757113,10.14581195788018,-0.43175641008646126,0.4198656844064581,0.34609235290811646
-0.5097391218104517,0.23345032343901911,10.073516566245482,-0.4708544839573042,0.3352435389540588,0.37344067181102736,-0.4997858998657547,0.24461176555148206,10.205486683777737,-0.3733549800766377,0.362925298009785,0.401938700251869
-0.3748961848251337,0.2058708294213012,10.185308155723826,-0.2826691136652223,0.3840815858091008,0.4617752035017627,-0.40308627131678737,0.22006835147892467,10.263136186804381,-0.3132805386755901,0.3047669064687767,0.45687436697383915
-0.35756190758081685,0.0446223998687397,10.532888753365148,-0.28715050958556493,0.27940729625443395,0.4346316045076419,-0.3113409774168863,0.18890956768539613,10.31865920414015,-0.25187696686899647,0.24550765225886922,0.5105937456399072
-0.17778306849490466,0.16793992433680838,10.377797940876508,-0.18174692927212877,0.17533992874664367,0.4761871962558669,-0.22488820488109904,0.1512269597332185,10.371945053523485,-0.1894946033527163,0.18526934690276192,0.5627870074914425
-0.18429378938939928,0.16675062140794317,10.419425337879431,-0.23225869653987255,0.02742385412835195,0.623888198280985,-0.144021781858444,0.10711495187447535,10.42287233556784,-0.1264867001979343,0.12417998871158335,0.6131428355139801
-0.08021126721144525,-0.23140374854210027,10.451129025618894,-0.03301970105436117,0.12063340406203979,0.5985181971305009,-0.06899086804121225,0.05667163951074278,10.471307997585157,-0.06320578541407566,0.062375266022604556,0.6613512918222612
0.05772320332935476,0.17300212887506167,10.418244468944295,0.010000305919306588,0.08184873652414675,0.7336264838088516,-2.5293860358883463e-15,3.789325340109876e-16,10.517106781186548,-1.0914178647232663e-15,1.0500501430653833e-15,0.7071067811865475
-0.09090041616280238,-0.1132437880130635,10.453180035721417,0.1196909342935491,-0.049428918363204406,0.7539718789580216,0.0627905195293106,-0.06279051952931257,10.56011106963046,0.06279051952931193,-0.06279051952931197,0.7501110696304593
0.06404638513070098,-0.23306903797900497,10.59765233265042,0.10261637694069356,-0.20603989097611,0.7848961238539848,0.11926389700570318,-0.1315820869062455,10.600151144637197,0.12483714057405265,-0.12582935126181294,0.7900763149768516
-0.0994224348360527,-0.27078215888938045,10.674939494137174,0.3075393022941715,-0.2148755126782615,0.8930046579940208,0.16934579440715367,-0.20624629900026095,10.637045856189426,0.18582604363915223,-0.18893691710914493,0.8267280650971185
0.1581956925468838,-0.23776563537936088,10.690611495259455,0.23886889115502968,-0.2103463808328757,0.8961938676675626,0.21300295123431304,-0.28664178828086706,10.670603702675296,0.2454612714660399,-0.2519202561881028,0.859808179485619
0.6695656840883075,-0.41153990458641876,10.769391366284639,0.24838892420937164,-0.3945102186593261,0.8551774467790579,0.25024148623700215,-0.3726116903012634,10.700624312578144,0.3034674526967641,-0.3145725561007509,0.8890776306486613
0.32658102842860465,-0.6094153618438224,10.667591650200315,0.4414992181917212,-0.4424535938274877,0.8341882240135918,0.28110488336331046,-0.46398104484146657,10.726900312748814,0.3595921410292519,-0.3766729946209189,0.9143191436394661
0.32465462268267664,-0.6520294051774287,10.780718079873571,0.3631959640284793,-0.4049405574904845,0.9122429058703942,0.30567166815519076,-0.5605542066115153,10.749219562097185,0.4136077190250892,-0.437986919014434,0.9353396348192938
0.24524925133279823,-0.8210663172349639,10.762589023660192,0.4273024123725587,-0.5061856624308154,1.0628795541653575,0.3240527838766807,-0.662112343341586,10.76736772331183,0.46531282557497494,-0.4982663834093126,0.9519724144774323
0.12015911354609499,-0.7352884487571271,10.837860570032996,0.4142362160693238,-0.5105956277096035,1.0680318679012981,0.3363886810558828,-0.7684110996325629,10.781131138990563,0.5145332772597078,-0.5572510570195892,0.9640791221667883
0.28862490981255784,-0.8330045662667991,10.76176488684997,0.5164818573689353,-0.5402479221502802,0.9495428768193184,0.34284613976375977,-0.8791785039528738,10.790299972402266,0.5611224661624507,-0.6146695077630553,0.9715513683540545
0.4369061581084296,-0.8820993232948928,10.729007824544153,0.6188156264189671,-0.6932757160821899,1.0226717146364444,0.34361485067316133,-0.9941131934899892,10.79467156709912,0.6049612297450854,-0.6702408570773049,0.9743120610783879
0.5316739401714979,-1.0205158151501332,10.729567405063607,0.6865313995408115,-0.7734679663829261,0.9651366290091609,0.33890378849224156,-1.11288302706083,10.794053973890227,0.6459572018216677,-0.7236767927346264,0.9723164015925014
0.33734758306990426,-1.3357117597942385,10.803620326997423,0.6923566963493288,-0.7540717183499812,0.9437013358088436,0.32893741942645316,-1.235124149854978,10.788269588437261,0.6840436670515424,-0.774683917410849,0.9655525382639752
0.18982044273049262,-1.3759865796505915,10.771188296171523,0.7951694928089511,-0.7290530053460098,0.9333087164762576,0.31395179250837946,-1.3604405653844287,10.777158838128871,0.7191779543334986,-0.8229664019177079,0.9540418731959721
0.2955734387031144,-1.5040209989014908,10.727746691680823,0.7744008184646287,-0.8622779802271768,0.9522325230756622,0.2941905725171037,-1.4884042596773952,10.760583853139101,0.7513394166204638,-0.8682289036157607,0.9378390209608733
0.3861520584843641,-1.8072913128725054,10.909249840049467,0.7463691062965799,-0.9906422845165,0.8862037948159708,0.2699010793329718,-1.6185559106024492,10.738432053885163,0.7805270556194895,-0.9101797028373331,0.9170314234290213
0.17417096114704267,-1.9385804695799305,10.802985778309424,0.779942787283528,-0.9823064223227059,0.9269054092530383,0.24133040448497944,-1.7504062014658905,10.710619585672653,0.8067568592564172,-0.948534003413172,0.8917386288487518
0.3221046795147842,-1.8828487223023793,10.585548472720927,0.9040360227904849,-1.0702593722046578,0.924520603799183,0.20872167991520973,-1.8834377430135345,10.677094531328798,0.830058927372005,-0.9830173378405562,0.8621112470541014
-0.016192559635169773,-2.1556502148071885,10.583411405245574,0.8598062731746252,-0.9168793941617399,0.785019341455712,0.1723105762290803,-2.017107592111122,10.6378398342171,0.8504744666328181,-1.0133690134569733,0.8283295959328505
0.014431322659620993,-2.23053534456161,10.557105592996649,0.75566278535287,-1.0229806249128448,0.8436262973289425,0.13232210761904006,-2.1508503391834646,10.592875867289669,0.8680527389010374,-1.03934553335771,0.790602057096223
0.1441525072610098,-2.261758024087115,10.62562284694575,0.9531821196158213,-1.0414598245363205,0.6532536426076134,0.08896781804014253,-2.2840817205361055,10.542262588795888,0.8828480481942158,-1.060723924839669,0.7491631610906894
0.02032386905420633,-2.3423138809124495,10.482283024303404,0.9428285962757327,-1.057577507078783,0.7000975002516792,0.04244341799105256,-2.4162026965779084,10.486101231888878,0.8949168498292494,-1.077304908936816,0.70427142453775
-0.005335488872272494,-2.372893305772596,10.578551667881547,0.8581985969914098,-1.0126463799968755,0.6718088967964742,-0.007073066546378515,-2.546603923330182,10.42453548354218,0.9043150614081475,-1.0889158471487115,0.6562069633452743
0.13864355278431986,-2.7714018542988432,10.364210828848195,0.958800540438163,-1.016238323257781,0.6834486516035454,-0.05942258166424341,-2.674670533040676,10.357752117725445,0.9110956490609501,-1.0954134057056608,0.6052689076763174
-0.1262725053149963,-2.6984823418756503,10.310289152242392,0.8836018270515358,-1.0157506725139311,0.5071331367576101,-0.11446573056246478,-2.7997871307494955,10.285981058438042,0.9153065539792966,-1.0966858835562852,0.5517726457584051
-0.18800912633302722,-3.1102456644865977,10.45547244765594,1.0683479001150267,-1.1556766484870669,0.4748513135093445,-0.1720828310809841,-2.9213429077118276,10.209494859655672,0.9169890139843027,-1.0926551575418273,0.4960469249321444
-0.23105930420257667,-2.9752981932388267,10.23970080649926,1.0124402890064501,-0.9998465431024257,0.502823963647903,-0.23217333602277634,-3.0387367699768575,10.128607601153249,0.9161763229671759,-1.0832782067202278,0.4384308396234331
-0.3283116467515237,-3.122875958265992,9.973546494677297,0.9152928750522757,-1.1287495183629461,0.37805669732816377,-0.29465462251365004,-3.1513823813125,10.043673211146857,0.9128930578657015,-1.0685481872610605,0.3792707372128691
-0.3917842182116109,-3.4254082349204418,9.869499943101719,0.9025150132550839,-1.0674861922133756,0.4448149293487736,-0.35946017270505415,-3.258713024049202,9.955083238356247,0.9071547887833754,-1.0484950394539463,0.3189170740812247
-0.4923262695703526,-3.3361848336187117,9.798371037940534,0.9242043449589302,-1.0297932818001312,0.35519314522486867,-0.42653718372144134,-3.36018618912499,9.863264107046616,0.8989682733419978,-1.0231856188393245,0.2577212554206073
-0.35562547264375527,-3.4898791223018892,9.835084588217264,0.9590138950068335,-0.9562784106901424,0.2071760505324337,-0.4958436593481893,-3.4552878173208024,9.768673898511075,0.8883321218251933,-0.9927233539516798,0.1960324936786681
-0.6020299591544663,-3.5491576743013282,9.619606651153953,0.9041661086111493,-0.9575903225558522,0.09412075237573547,-0.5673450490775059,-3.543536126908975,9.6717987109982,0.8752379055691489,-0.9572474433354103,0.13419472168588534
-0.5257999674469919,-3.5635636978702525,9.62288723274425,0.8757071966438199,-0.9260217222736252,0.0222816044690156,-0.6410105113926374,-3.624484978108545,9.573148657028861,0.859671667831401,-0.9169316140418953,0.07254359751437023
-0.7645977706619778,-3.7026598786364655,9.415035263209699,0.8839168806593772,-0.8244793940059832,-0.04008746421881329,-0.7168088872918148,-3.6977267411707126,9.473253562212847,0.841615784442212,-0.8719824724616239,0.011403638821492396
-0.7106559653139085,-3.7915758894867513,9.154778626958633,0.8723870307712671,-0.8759438990194264,-0.11113824058188652,-0.7947044768595639,-3.7628946518757127,9.37265843297955,0.8210511113052893,-0.8226374858452666,-0.04891447528460088
-0.7185812587699797,-3.729462875290282,9.312617173112677,0.8570826707611825,-0.739243549844976,-0.1595487698277277,-0.8746527161204758,-3.819664654963337,9.271918762071724,0.7979593476070778,-0.7691626390290338,-0.10811639709507384
-1.0645413360882454,-3.7563805559550434,9.214633088704753,0.8297272737806499,-0.7332962873383214,-0.14812086310111597,-0.9565958534968719,-3.8677567518208145,9.171595740291362,0.7723255376977908,-0.7118498155645618,-0.16592636107603326
-1.0943601899288014,-4.046725604901123,9.17936526312168,0.680747253852734,-0.6858408903690765,-0.12146651172574516,-1.040458725060918,-3.906935882949158,9.072251440980942,0.7441406312316574,-0.6510139555830744,-0.22208915758164
-1.1478484400480053,-3.8122526734535604,8.99079782743283,0.7031721705386794,-0.5540300771509221,-0.2990834196923136,-1.1261447256145805,-3.937012387745595,8.974444040282156,0.7134040204247061,-0.5869900442791884,-0.27637179726130046
-1.1853534159365422,-3.977736410619306,8.697257126867363,0.6696317963275017,-0.4855673136914461,-0.312363884876941,-1.2135320686816788,-3.957842093512289,8.878723131598909,0.6801259752414393,-0.5201299849221724,-0.3285648376873993
-1.2230363704226226,-4.085639046614378,8.82825663478641,0.6032038130097801,-0.39448172956310906,-0.49676171699684724,-1.302470423010074,-3.969326091997518,8.785625187195288,0.6443299018961582,-0.45079940888696013,-0.3784833485667488
-1.5121798729995557,-3.9335960651497714,8.66960752852325,0.5927055684208213,-0.4835998639009862,-0.5079294441519161,-1.3927780064113078,-3.971410265004481,8.695669213790259,0.6060543570906889,-0.3793744724868316,-0.42596749779338616
-1.499399969217139,-3.9867571888994595,8.515063753210688,0.606816954081711,-0.3454504161462421,-0.3769028289183363,-1.484239209939595,-3.964084620621391,8.609352642678264,0.5653547596517334,-0.306238686569193,-0.4708827474836458
-1.7273777724793227,-3.926745300132586,8.39733225489891,0.5771445247273578,-0.14940891024475522,-0.5081155496617664,-1.5766028167267836,-3.9473824985326753,8.527147488595219,0.5223047523288674,-0.2317798201177158,-0.5131196568769046
-1.6083245615937216,-4.08494002978814,8.495932570513048,0.5097976301214957,-0.11148105401096385,-0.5867337049762674,-1.6695808703911454,-3.9213796969010226,8.449496805521328,0.4769971790400057,-0.1563869137240403,-0.5525932973917322
-1.6939309175669344,-3.737756441315117,8.26088221980137,0.45263692844962367,-0.17546747506457877,-0.5962754449191486,-1.7628482379252215,-3.8861935648197674,8.376811462074924,0.42954465630907657,-0.08044743299224733,-0.5892422939456903
-1.764335503947851,-3.735976095656514,8.414641107397616,0.39322104817970677,-0.025151260135640046,-0.6527324681729226,-1.8560429013933495,-3.841982093787685,8.309467254264376,0.38007973149002844,-0.004344585962285263,-0.6230275155751742
-1.9365442075478823,-3.6380530945909753,8.308049824296475,0.3985882444987909,0.1347224159451605,-0.7050784129933108,-1.9487670016493812,-3.7889430296007363,8.247802369224651,0.328754634048019,0.07154517728554217,-0.6539304470929593
-2.0233630605612736,-3.7712816493447026,8.048816745958522,0.37166361421882915,0.20409960759738122,-0.675941445058714,-2.040588645611698,-3.727313013098814,8.192115210208957,0.27574063911367064,0.14685447034261187,-0.6819512816411388
-2.167090810888359,-3.6495480238614855,8.106202023926752,0.22833294290475706,0.2971780343895679,-0.7015101978062115,-2.1310444763941994,-3.6573667449986527,8.142662590509403,0.221227074211366,0.22122707421136362,-0.7071067811865478
-2.2178016571075587,-3.6823720877933477,8.166535057589739,0.14499772831074736,0.3672969551451867,-0.7261094010119651,-2.21964299278847,-3.57941615725169,8.099658302065492,0.16542001002085677,0.2943198363983695,-0.7294279579402738
-2.3105362413619606,-3.3601488937483337,8.048439785879925,0.10845820660486674,0.39942110371550393,-0.7736929337799618,-2.305868591260053,-3.493809561638008,8.063272063156917,0.10854068387854532,0.365804366595013,-0.748957634087671
-2.477600991019284,-3.4339927607823695,8.012486015269337,0.12392804559182695,0.3687837043618747,-0.766685878593659,-2.3891862898452327,-3.4009307362607544,8.033628848603067,0.05082371018503551,0.4353685333049676,-0.7657479398810918
-2.4174831165910597,-3.2702167074373447,8.08914388754504,-0.03625413695548338,0.5375968530067539,-0.7440799440145542,-2.469047079266908,-3.301197902790476,8.010808605112562,-0.007484865198052637,0.5027177680901374,-0.7798578109485077
-2.4304827446400847,-3.1397877012890785,7.958513603541473,-0.1244070612591807,0.587737887855881,-0.7398038507708838,-2.5448938324554944,-3.195062542190805,7.99484635363693,-0.06612960913257154,0.5675761856126091,-0.7913505445717955
-2.394717551309216,-3.070525567982811,7.9147147869989185,-0.14879162363824336,0.6983844801966942,-0.8283764613080166,-2.616167689769328,-3.0830079945909317,7.985732679576895,-0.12484778866203444,0.629687528393844,-0.8002914717477755
-2.5218828650250513,-2.9290441087273695,7.9976637797751815,-0.248815007855669,0.7207314435776166,-0.8134983824615114,-2.6823148239390147,-2.965547790181527,7.9834146102757755,-0.18337145080282052,0.6888159452698275,-0.8067457972116133
-2.797175792018403,-2.9109280098339836,8.035480680285728,-0.2476614290993301,0.737953665951292,-0.7745895607335995,-2.742793476554728,-2.8432236625792013,7.987796877246609,-0.2414294500114042,0.7447466119959039,-0.810776653503751
-2.765242071661204,-2.710418074340264,8.124508224208261,-0.1968996820979411,0.8504238311359367,-0.7833935043673682,-2.7970811472629045,-2.7166032039533663,7.99874355789074,-0.2987493864592705,0.7972862014726247,-0.812443407888977
-2.741230798551216,-2.590774152829519,8.02584357813021,-0.3570740400675969,0.8956164277992626,-0.8115828444752454,-2.844681808246578,-2.5862771321000495,8.01608008799669,-0.35505942707177657,0.8462632097641992,-0.8118002528235355
-2.7676121615099016,-2.4119926153160467,7.952262516142576,-0.475174716639617,0.9627090550279358,-0.7233827048517485,-2.885133010528113,-2.452856153183471,8.039595632036061,-0.41008999064947693,0.8915281426112878,-0.808895102068241
-3.0421982436164012,-2.281593373827746,7.9713092721583605,-0.4659535238654473,0.917333196852955,-0.7627622431423127,-2.9180127456076637,-2.316967419502964,8.069045793234936,-0.4635752877927547,0.9329535656488175,-0.8037688058160368
-3.0110795950863363,-1.973407440061703,8.103769613615386,-0.5265553088640592,1.0124552817335148,-0.7773493629525671,-2.942945926309272,-2.1792505987073283,8.10415563969334,-0.5152547153216858,0.9704340201690246,-0.7964546896731439
-3.058138666211518,-2.179078899827032,8.244217222084785,-0.5824713921067679,0.9882108480935323,-0.7307871163400987,-2.9596103547141777,-2.0403535885961768,8.144623016610153,-0.5648741130027632,1.0038858051507242,-0.7869784142960274
-2.9116846571436237,-1.91131721711476,8.135211652083568,-0.5586674605345187,1.0220332882252054,-0.7893724070850097,-2.967742052843076,-1.9009279291794376,8.190122108158072,-0.612186897310762,1.0332466255186006,-0.7753581451818048
-2.810005231824333,-1.7982144437574825,8.379900413334376,-0.6419196561827331,1.1740940595732094,-0.7834457921343939,-2.967139843272879,-1.7616239801460511,8.240307206000574,-0.656955092398253,1.058475106290813,-0.761605015715842
-3.024873034299467,-1.5966438963988308,8.417907965034033,-0.7198755016539475,1.1071962451213475,-0.7987939405369405,-2.9576690819350357,-1.6230859464783118,8.294816635139357,-0.6989502822372073,1.0795501724806877,-0.7457238612116274
-3.012268039976428,-1.4158453007568041,8.392491885366228,-0.7043296815978908,1.0767936193129126,-0.845632963662586,-2.9392644635647494,-1.485946846861218,8.353276782035403,-0.7379545099470576,1.0964702953715562,-0.7277141973857526
-2.9104944915307005,-1.3652008743989394,8.447096664612856,-0.7528363644324396,1.0903894154576435,-0.7779313592795642,-2.911931841115293,-1.3508235281114547,8.415306165068928,-0.7737611506298641,1.1092526070850959,-0.707571413488246
-3.0134325302281666,-1.3093154671430702,8.340883564144288,-0.868898405634263,1.1635800818622002,-0.7240914586881592,-2.8757490232384555,-1.2183118335741128,8.480519483687928,-0.8061757826730247,1.1179318871839785,-0.6852881480996619
-2.7778601509534786,-1.1307224090234664,8.432290595203654,-0.7624810634412469,1.1428062154730887,-0.6144314908687921,-2.830865537871884,-1.0889820339760394,8.548531580303125,-0.8350170796003524,1.122559427332387,-0.6608558143156442
-2.6778774792024382,-0.9608258115856942,8.589806680232787,-0.8034453410834511,1.1446364064868204,-0.616934321881548,-2.7775013742057713,-0.96337462545872,8.618961248331312,-0.8601177403552972,1.123201782698184,-0.6342662405448994
-2.757574012268606,-0.624804015493092,8.765020341370878,-0.9066928484517657,1.1500403305490965,-0.5934820294198154,-2.715944738940661,-0.8419965915300374,8.691434820919039,-0.8813254706316562,1.1199394217130483,-0.6055133933077583
-2.808235896917685,-0.7967007696978343,8.575293233915396,-0.831709083347781,1.1082772024846415,-0.6676726079736164,-2.6465488849311662,-0.7253182137762899,8.765589477869817,-0.8985040218000301,1.1128652888866357,-0.5745951490965313
-2.7027031197818996,-0.705788309740419,8.74119296518494,-0.8244584921209225,1.2514157772546015,-0.48621762483198666,-2.5697280902440216,-0.6137705008605496,8.841076213145469,-0.9115342874021382,1.1020832984625106,-0.5415150834052938
-2.3259895265817843,-0.5287665272380232,8.86851215654217,-0.9277959129237738,1.1101554652522287,-0.5045223436196414,-2.485952882659997,-0.5077432872656347,8.917562411927841,-0.9203154503915232,1.0877067796645374,-0.5062842463290718
-2.3533359116190664,-0.3987728705861612,8.700593176168217,-0.9822464623393125,1.0449591086787187,-0.354586455055111,-2.3957446181819186,-0.40758403321199344,8.994733994442011,-0.9247661675730618,1.0698568969710869,-0.46892289556215744
-2.2105955467658456,-0.42521632793694875,9.249911807832314,-0.8827684024886194,1.124920158314454,-0.4727081187527643,-2.299669531810998,-0.31359733606757567,9.072297093314361,-0.9248257713033105,1.0486610711350277,-0.429462159107735
-2.0669773295877913,-0.05183472264890218,9.018814441194701,-0.9032390674158643,1.0252352432669067,-0.4402411647990655,-2.1983323845427956,-0.22604514227465056,9.149979241863944,-0.9204554627042164,1.024251428416705,-0.38794560148691626
-2.1153744316597036,-0.2542926839095655,9.26103430920985,-0.8903527629474298,1.0463971825792078,-0.35345323304207954,-2.092369832222865,-0.14514762823538174,9.227530062052397,-0.9116394656306198,0.9967633066090115,-0.3444306686725158
-2.1822177768313074,-0.14739838215869042,9.402975564393106,-0.8547546853632061,0.9552553695469851,-0.25618480712258745,-1.9824436397802834,-0.07108469954558783,9.30472145246652,-0.8983861066013671,0.9663338468232299,-0.29898998836407265
-1.8729849691194171,-0.04604132667373037,9.390948127949958,-0.9029912498210773,0.8930853670537786,-0.19423762958064333,-1.8692338587747297,-0.003998041158208343,9.38134728828783,-0.8807287830041353,0.9331006996123394,-0.2517125035838858
-1.541347834230005,0.11303500522159587,9.401170370616,-0.8158323602748616,0.9099879423900813,-0.20452081881374884,-1.7534320776313186,0.05600636293125871,9.457222656335341,-0.8587267802285515,0.8972008728014947,-0.20270441894602662
-1.7274105153226949,0.07308083351304219,9.593127266989159,-0.754814426816975,0.9250715216995565,-0.011399565451665344,-1.6357348429771996,0.10885533264400649,9.532182658599165,-0.8324658980477596,0.858769746368729,-0.1520899403860784
-1.4180364148018298,0.07360821093735756,9.49896627788675,-0.8048748631535155,0.917667338363377,-0.16796807742104192,-1.5168373377759348,0.15450531687781788,9.606080826906187,-0.8020588475956997,0.8179402768948024,-0.10001179070363847
-1.415357291400928,-0.04767487316420829,9.82336560539384,-0.8272054750536125,0.785604808537533,-0.04547385287400507,-1.3974273881443646,0.19293904387587169,9.67878719922545,-0.767645382680702,0.7748424105284953,-0.046631485033541066
-1.3006767494980735,0.20556211838277513,9.868390344173882,-0.774600101179146,0.8292393928940944,0.02391577510753814,-1.2781798564840732,0.22416210042125528,9.750186114447663,-0.7293921329051134,0.7296027191655147,0.00787064760401375
-1.163711634317067,0.12398557967509882,9.923259886272215,-0.6124390775645473,0.6681457098349556,0.056523900314448386,-1.159751464473716,0.24819954047230364,9.82017378714966,-0.687492111060761,0.6823442697095937,0.06329570815558663
-1.0072823323226854,0.12390798371618345,9.970257426263853,-0.5716576823765595,0.6354119884280904,0.16538189878096188,-1.042776076087162,0.2650926180894613,9.888655726843007,-0.6421638734426328,0.6331867309852554,0.11942674551554687
-1.0697531911468707,0.3930095177559951,9.991701041112867,-0.5554868818493723,0.6327875560200062,0.1756877238965932,-0.9278604585742933,0.27489573130737327,9.955544067536275,-0.5936503189373842,0.5822467172289135,0.17602955418863023
-0.6404018449438688,0.18739280146598364,10.213334725183914,-0.5497777060130331,0.4717988212610257,0.27325290574403743,-0.8155805286128363,0.27767365345733763,10.020754873203671,-0.5422171208367668,0.529638361234856,0.2328537535825502
-0.588804329586399,0.13677239159373256,10.146317866850067,-0.49043657066858104,0.49246295381021454,0.2763775606044932,-0.7064780818490831,0.2734991168430875,10.084205483091043,-0.4881507941061968,0.4754741043163507,0.28963414686188343
-0.6522886979937208,0.3647156485112409,10.16713328912914,-0.4490062179411934,0.4303599922058501,0.3355436041744207,-0.6010579969249106,0.262450801107572,10.145811957880177,-0.43175641008646465,0.41986568440645844,0.34609235290811285
-0.6896397291466625,0.06755422169645037,10.022749630585412,-0.380648630510937,0.37057705662473733,0.4007146245083179,-0.4997858998657518,0.24461176555147673,10.20548668377774,-0.37335498007663465,0.36292529800977863,0.4019387002518719
-0.3816845279997068,0.43143002452053414,10.31991243354497,-0.2979510639734748,0.22578755806722528,0.48198730501928233,-0.4030862713167883,0.22006835147892562,10.263136186804381,-0.31328053867559036,0.3047669064687769,0.456874366973839
-0.2487472356148949,0.24843846612791923,10.249058510676088,-0.30604453701111767,0.3573324892007448,0.493773269875602,-0.31134097741688727,0.18890956768540054,10.31865920414015,-0.2518769668689967,0.2455076522588729,0.510593745639907
-0.2974689656297239,0.18396771517663468,10.276527731784205,-0.20150241516451609,0.1980349827974001,0.6178318627523527,-0.22488820488110312,0.15122695973321953,10.37194505352348,-0.18949460335272003,0.18526934690276226,0.5627870074914364
-0.06829051040869406,0.10266836260786061,10.50287305914763,-0.14032593017521433,0.18311166840468981,0.6376430573892069,-0.14402178185844106,0.10711495187447323,10.422872335567842,-0.12648670019793104,0.12417998871158013,0.6131428355139827
-0.11052957946613659,-0.06601840757748662,10.456143271118368,-0.0213946161286539,0.06728309521234385,0.6295539526847358,-0.06899086804121318,0.05667163951074385,10.471307997585157,-0.06320578541407595,0.06237526602260486,0.6613512918222609
0.045720355975260425,0.021296697627191573,10.513872579014047,0.0016324886039740347,-0.026577290004928568,0.7777203274571161,-3.447575671372658e-15,5.021075823620333e-15,10.517106781186545,-1.3848759611907653e-15,4.908564930337685e-15,0.7071067811865448
0.01990220786501369,-0.19270185536205492,10.422854849056232,0.08389289201946211,0.011385277841135216,0.7469810957077417,0.06279051952931006,-0.06279051952931144,10.560111069630459,0.06279051952931167,-0.06279051952931167,0.750111069630459
0.09946956769393113,-0.01714211957218377,10.522396233007278,0.07122017802759628,-0.08265429399408632,0.8159230577780081,0.11926389700570264,-0.13158208690624437,10.600151144637197,0.12483714057405239,-0.1258293512618126,0.7900763149768514
0.2861159947096876,-0.26758363784742845,10.622557853268768,0.30120012487772474,-0.12506756439227856,0.7946164965399389,0.16934579440715317,-0.20624629900026326,10.637045856189424,0.18582604363915198,-0.18893691710914806,0.8267280650971164
0.316724685550027,-0.21544844436120264,10.662598861307554,0.21457733300564463,-0.3407628495523696,0.8743429674118263,0.2130029512343122,-0.2866417882808625,10.670603702675294,0.24546127146603966,-0.25192025618809905,0.8598081794856172
0.039237784534586234,-0.3420979755550884,10.68620810653614,0.31872033427191443,-0.27727816615050804,0.9032680017258746,0.25024148623700165,-0.37261169030126223,10.700624312578144,0.3034674526967639,-0.3145725561007506,0.8890776306486612
0.4169090268090746,-0.3060732388241213,10.680402709680804,0.4317670256151384,-0.3646789992307385,0.9676046672613345,0.28110488336331,-0.4639810448414654,10.726900312748814,0.3595921410292517,-0.3766729946209186,0.9143191436394661
0.23424889931929196,-0.5964848501794812,10.725807908813453,0.38530219828166085,-0.4665743326266112,0.9675891125766564,0.3056716681551903,-0.5605542066115173,10.749219562097183,0.41360771902508897,-0.43798691901443687,0.9353396348192925
0.26993973623395273,-0.5198973025285972,10.805411770665575,0.4491837679201157,-0.5171708286689943,0.9910222017021058,0.32405278387667996,-0.6621123433415848,10.76736772331183,0.4653128255749747,-0.4982663834093123,0.9519724144774324
0.2782886050883482,-0.7353510061627604,10.788461510088743,0.6022151981900546,-0.5894239161934958,0.992189358615183,0.336388681055882,-0.7684110996325588,10.781131138990562,0.5145332772597074,-0.5572510570195859,0.9640791221667876
0.3036077881959456,-0.7413990262331255,10.816410653381825,0.5144347288682245,-0.5607432228920971,0.9490744148840757,0.3428461397637651,-0.8791785039528754,10.790299972402268,0.5611224661624562,-0.6146695077630578,0.9715513683540551
0.32177735248259526,-0.9720188129223541,10.78036133156544,0.6493392755284005,-0.6528170989826346,1.012233269588565,0.34361485067315795,-0.9941131934899884,10.794671567099119,0.6049612297450825,-0.6702408570773046,0.9743120610783871
0.5064036768413879,-1.1493985675067502,10.812011931486422,0.6878321771227895,-0.7255659148385936,0.9305468266166187,0.3389037884922435,-1.1128830270608345,10.794053973890227,0.6459572018216702,-0.7236767927346315,0.9723164015925013
0.23072631042898137,-1.1445952661302057,10.709560243020752,0.6160390194764103,-0.7323753705889906,0.9777384002199396,0.32893741942645205,-1.235124149854975,10.788269588437261,0.6840436670515423,-0.7746839174108462,0.9655525382639756
